run,start_time,type,moviestim,jitters,frames,trials.thisRepN,trials.thisTrialN,trials.thisN,trials.thisIndex,fix1.started,welcome_key.started,welcome_key.keys,welcome_key.rt,fix3.started,fix3.stopped,movie.started,text_15.started,key_resp_9.started,text_15.stopped,key_resp_9.stopped,key_resp_9.keys,key_resp_9.rt,fix4.started,fix4.stopped,participant,session,date,expName,psychopyVersion,frameRate,
,,,,,,,,,,21.40072129992768,21.40072129992768,['equal'],[16.54475100012496],,,,,,,,,,,,Subject_7,4,2023-08-28_14h58.16.276,run_1,2023.1.2,60.04704086048258,
4,10.0,scrambled,fps_60/1591975.bmp_pp86_L2_V1_scrambled_freeview_isoFalse_fps60.mp4,10.0,None,0,0,0,0,,,,,37.96208440000191,48.29555379995145,48.29555379995145,51.387426800094545,51.387426800094545,54.3907091000583,54.3907091000583,['2'],[2.1675442000851035],,,Subject_7,4,2023-08-28_14h58.16.276,run_1,2023.1.2,60.04704086048258,
4,19.59,scrambled,fps_60/1592804.bmp_pp60_L3_V1_scrambled_freeview_isoFalse_fps60.mp4,3.59,None,0,1,1,1,,,,,54.3907091000583,58.429555099923164,58.429555099923164,61.52850289992057,61.52850289992057,64.53939740010537,64.53939740010537,['2'],[0.27617570012807846],,,Subject_7,4,2023-08-28_14h58.16.276,run_1,2023.1.2,60.04704086048258,
4,28.07,scrambled,fps_60/1159318.bmp_pp93_L1_V1_scrambled_freeview_isoFalse_fps60.mp4,2.4800000000000004,None,0,2,2,2,,,,,64.53939740010537,67.40968489996158,67.40968489996158,70.54434269992635,70.54434269992635,73.55272680008784,73.55272680008784,['2'],[0.9895087999757379],,,Subject_7,4,2023-08-28_14h58.16.276,run_1,2023.1.2,60.04704086048258,
4,36.17,veridical,fps_60/1159482.bmp_pp97_L3_V1_veridical_freeview_isoFalse_fps60.mp4,2.1000000000000014,None,0,3,3,3,,,,,73.55272680008784,76.04751190007664,76.04751190007664,79.154727099929,79.154727099929,,,['1'],[0.3318370000924915],,,Subject_7,4,2023-08-28_14h58.16.276,run_1,2023.1.2,60.04704086048258,
4,44.9,veridical,fps_60/1591975.bmp_pp86_L2_V1_veridical_freeview_isoFalse_fps60.mp4,2.729999999999997,None,0,4,4,4,,,,,82.16939770011231,85.23770530009642,85.23770530009642,88.36109200003557,88.36109200003557,91.36926020006649,91.36926020006649,['1'],[0.4037689999677241],,,Subject_7,4,2023-08-28_14h58.16.276,run_1,2023.1.2,60.04704086048258,
4,53.57,veridical,fps_60/1159777.bmp_pp56_L3_V1_veridical_freeview_isoFalse_fps60.mp4,2.6700000000000017,None,0,5,5,5,,,,,91.36926020006649,94.46144220000133,94.46144220000133,97.57900519995019,97.57900519995019,100.58979710005224,100.58979710005224,['1'],[0.3696570999454707],,,Subject_7,4,2023-08-28_14h58.16.276,run_1,2023.1.2,60.04704086048258,
4,64.99,veridical,fps_60/1592804.bmp_pp60_L3_V1_veridical_freeview_isoFalse_fps60.mp4,5.419999999999995,None,0,6,6,6,,,,,100.58979710005224,106.41067299991846,106.41067299991846,109.49604719993658,109.49604719993658,112.50243730004877,112.50243730004877,['1'],[0.7214538999833167],,,Subject_7,4,2023-08-28_14h58.16.276,run_1,2023.1.2,60.04704086048258,
4,73.26,scrambled,fps_60/1159777.bmp_pp56_L3_V1_scrambled_freeview_isoFalse_fps60.mp4,2.2700000000000102,None,0,7,7,7,,,,,112.50243730004877,115.21490220003761,115.21490220003761,118.32740640011616,118.32740640011616,121.33581400010735,121.33581400010735,['2'],[0.4259779998101294],,,Subject_7,4,2023-08-28_14h58.16.276,run_1,2023.1.2,60.04704086048258,
4,82.26,veridical,fps_60/1159318.bmp_pp93_L1_V1_veridical_freeview_isoFalse_fps60.mp4,3.0,None,0,8,8,8,,,,,121.33581400010735,124.67002740013413,124.67002740013413,127.79317239997908,127.79317239997908,,,['1'],[0.9932136998977512],,,Subject_7,4,2023-08-28_14h58.16.276,run_1,2023.1.2,60.04704086048258,
4,93.48,scrambled,fps_60/1592568.bmp_pp81_L1_V1_scrambled_freeview_isoFalse_fps60.mp4,5.219999999999999,None,0,9,9,9,,,,,130.8059453999158,136.47833169996738,136.47833169996738,139.5462215000298,139.5462215000298,142.5524027000647,142.5524027000647,['2'],[1.6240362001117319],,,Subject_7,4,2023-08-28_14h58.16.276,run_1,2023.1.2,60.04704086048258,
4,104.93,scrambled,fps_60/1159497.bmp_pp91_L3_V1_scrambled_freeview_isoFalse_fps60.mp4,5.450000000000003,None,0,10,10,10,,,,,142.5524027000647,148.40100120007992,148.40100120007992,151.50013420009054,151.50013420009054,154.5024363999255,154.5024363999255,['1'],[1.636308099841699],,,Subject_7,4,2023-08-28_14h58.16.276,run_1,2023.1.2,60.04704086048258,
4,115.01,veridical,fps_60/1592372.bmp_pp89_L1_V1_veridical_freeview_isoFalse_fps60.mp4,4.079999999999998,None,0,11,11,11,,,,,154.5024363999255,159.05626720003784,159.05626720003784,162.14163290010765,162.14163290010765,165.15260379994288,165.15260379994288,['1'],[0.3984984001144767],,,Subject_7,4,2023-08-28_14h58.16.276,run_1,2023.1.2,60.04704086048258,
4,126.17,veridical,fps_60/1592568.bmp_pp81_L1_V1_veridical_freeview_isoFalse_fps60.mp4,5.159999999999997,None,0,12,12,12,,,,,165.15260379994288,170.7145334999077,170.7145334999077,173.80198220000602,173.80198220000602,176.8141688001342,176.8141688001342,['1'],[0.5712876000907272],,,Subject_7,4,2023-08-28_14h58.16.276,run_1,2023.1.2,60.04704086048258,
4,136.27,veridical,fps_60/1593102.bmp_pp80_L3_V1_veridical_freeview_isoFalse_fps60.mp4,4.1000000000000085,None,0,13,13,13,,,,,176.8141688001342,181.31609229999594,181.31609229999594,184.4132910000626,184.4132910000626,,,['1'],[0.4492338001728058],,,Subject_7,4,2023-08-28_14h58.16.276,run_1,2023.1.2,60.04704086048258,
4,147.81,veridical,fps_60/1159497.bmp_pp91_L3_V1_veridical_freeview_isoFalse_fps60.mp4,5.539999999999992,None,0,14,14,14,,,,,187.42693660012446,193.40575679996982,193.40575679996982,196.48650419991463,196.48650419991463,199.48577650007792,199.48577650007792,['2'],[0.31655700015835464],,,Subject_7,4,2023-08-28_14h58.16.276,run_1,2023.1.2,60.04704086048258,
4,156.79,veridical,fps_60/1592727.bmp_pp69_L3_V1_veridical_freeview_isoFalse_fps60.mp4,2.9799999999999898,None,0,15,15,15,,,,,199.48577650007792,202.85479600005783,202.85479600005783,205.97645470011048,205.97645470011048,208.9860980999656,208.9860980999656,['1'],[0.5400076999794692],,,Subject_7,4,2023-08-28_14h58.16.276,run_1,2023.1.2,60.04704086048258,
4,164.95,scrambled,fps_60/1159482.bmp_pp97_L3_V1_scrambled_freeview_isoFalse_fps60.mp4,2.1599999999999966,None,0,16,16,16,,,,,208.9860980999656,211.4594779999461,211.4594779999461,214.54950070008636,214.54950070008636,217.55043890001252,217.55043890001252,['2'],[1.6612311999779195],,,Subject_7,4,2023-08-28_14h58.16.276,run_1,2023.1.2,60.04704086048258,
4,173.04,scrambled,fps_60/1592372.bmp_pp89_L1_V1_scrambled_freeview_isoFalse_fps60.mp4,2.0900000000000034,None,0,17,17,17,,,,,217.55043890001252,219.9916976999957,219.9916976999957,223.10880440007895,223.10880440007895,226.12063649995252,226.12063649995252,['2'],[2.9451534000691026],,,Subject_7,4,2023-08-28_14h58.16.276,run_1,2023.1.2,60.04704086048258,
4,181.66,scrambled,fps_60/1593102.bmp_pp80_L3_V1_scrambled_freeview_isoFalse_fps60.mp4,2.6200000000000045,None,0,18,18,18,,,,,226.12063649995252,229.08709469996393,229.08709469996393,232.20610999991186,232.20610999991186,,,['1'],[0.29673090018332005],,,Subject_7,4,2023-08-28_14h58.16.276,run_1,2023.1.2,60.04704086048258,
4,190.0,scrambled,fps_60/1592727.bmp_pp69_L3_V1_scrambled_freeview_isoFalse_fps60.mp4,2.3400000000000034,None,0,19,19,19,,,,,235.2188208999578,237.89419630006887,237.89419630006887,240.99966199998744,240.99966199998744,244.00311350007541,244.00311350007541,['2'],[0.6203346999827772],,,Subject_7,4,2023-08-28_14h58.16.276,run_1,2023.1.2,60.04704086048258,
,,,,,,,,,,,,,,,,,,,,,,,244.00311350007541,254.00229709991254,,,,,,,
