run,start_time,type,moviestim,jitters,frames,trials.thisRepN,trials.thisTrialN,trials.thisN,trials.thisIndex,fix1.started,welcome_key.started,welcome_key.keys,welcome_key.rt,fix3.started,fix3.stopped,movie.started,text_15.started,key_resp_9.started,key_resp_9.keys,key_resp_9.rt,text_15.stopped,key_resp_9.stopped,fix4.started,fix4.stopped,participant,session,date,expName,psychopyVersion,frameRate,
,,,,,,,,,,15.973699300084263,15.973699300084263,['equal'],[102.25087230000645],,,,,,,,,,,,subject_14,1,2023-09-06_15h44.40.607,run_1,2023.1.2,59.61500621763571,
1,10.0,scrambled,fps_60/1592044.bmp_pp90_L2_V1_scrambled_freeview_isoFalse_fps60.mp4,10.0,None,0,0,0,0,,,,,118.25405780039728,128.64505600044504,128.64505600044504,131.74492900026962,131.74492900026962,['2'],[1.065644399728626],,,,,subject_14,1,2023-09-06_15h44.40.607,run_1,2023.1.2,59.61500621763571,
1,19.68,scrambled,fps_60/1592094.bmp_pp89_L1_V1_scrambled_freeview_isoFalse_fps60.mp4,3.68,None,0,1,1,1,,,,,134.7579510002397,138.89047360001132,138.89047360001132,141.96381300035864,141.96381300035864,['1'],[0.9022610001266003],144.9737732000649,144.9737732000649,,,subject_14,1,2023-09-06_15h44.40.607,run_1,2023.1.2,59.61500621763571,
1,29.81,veridical,fps_60/713142.bmp_pp54_L2_V1_veridical_freeview_isoFalse_fps60.mp4,4.129999999999999,None,0,2,2,2,,,,,144.9737732000649,149.4997605001554,149.4997605001554,152.59606660017744,152.59606660017744,['1'],[0.745091799646616],,,,,subject_14,1,2023-09-06_15h44.40.607,run_1,2023.1.2,59.61500621763571,
1,39.08,veridical,fps_60/1159515.bmp_pp80_L3_V1_veridical_freeview_isoFalse_fps60.mp4,3.27,None,0,3,3,3,,,,,155.6070964001119,159.30623560026288,159.30623560026288,162.41021380014718,162.41021380014718,['1'],[0.735045799985528],165.40870740031824,165.40870740031824,,,subject_14,1,2023-09-06_15h44.40.607,run_1,2023.1.2,59.61500621763571,
1,48.0,scrambled,fps_60/713142.bmp_pp54_L2_V1_scrambled_freeview_isoFalse_fps60.mp4,2.9200000000000017,None,0,4,4,4,,,,,165.40870740031824,168.75844430038705,168.75844430038705,171.88153660017997,171.88153660017997,['1'],[2.4003911004401743],174.89047840004787,174.89047840004787,,,subject_14,1,2023-09-06_15h44.40.607,run_1,2023.1.2,59.61500621763571,
1,56.3,scrambled,fps_60/713330.bmp_pp51_L1_V1_scrambled_freeview_isoFalse_fps60.mp4,2.299999999999997,None,0,5,5,5,,,,,174.89047840004787,177.57680020015687,177.57680020015687,180.68043619999662,180.68043619999662,['2'],[2.9696369003504515],183.68339200038463,183.68339200038463,,,subject_14,1,2023-09-06_15h44.40.607,run_1,2023.1.2,59.61500621763571,
1,66.73,veridical,fps_60/1592044.bmp_pp90_L2_V1_veridical_freeview_isoFalse_fps60.mp4,4.430000000000007,None,0,6,6,6,,,,,183.68339200038463,188.5860472000204,188.5860472000204,191.6768892002292,191.6768892002292,['2'],[2.2376319002360106],,,,,subject_14,1,2023-09-06_15h44.40.607,run_1,2023.1.2,59.61500621763571,
1,75.4,scrambled,fps_60/1159515.bmp_pp80_L3_V1_scrambled_freeview_isoFalse_fps60.mp4,2.6700000000000017,None,0,7,7,7,,,,,194.69055480044335,197.78623070009053,197.78623070009053,200.86754220025614,200.86754220025614,['1'],[0.7734074997715652],203.873674900271,203.873674900271,,,subject_14,1,2023-09-06_15h44.40.607,run_1,2023.1.2,59.61500621763571,
1,84.36,scrambled,fps_60/1160247.bmp_pp99_L2_V1_scrambled_freeview_isoFalse_fps60.mp4,2.9599999999999937,None,0,8,8,8,,,,,203.873674900271,207.2016821000725,207.2016821000725,210.30934540042654,210.30934540042654,['2'],[0.920883399900049],,,,,subject_14,1,2023-09-06_15h44.40.607,run_1,2023.1.2,59.61500621763571,
1,93.97,veridical,fps_60/713807.bmp_pp152_L2_V1_veridical_freeview_isoFalse_fps60.mp4,3.61,None,0,9,9,9,,,,,213.3202634002082,217.3707195003517,217.3707195003517,220.45601180009544,220.45601180009544,['2'],[2.045369400177151],223.46333460044116,223.46333460044116,,,subject_14,1,2023-09-06_15h44.40.607,run_1,2023.1.2,59.61500621763571,
1,103.09,veridical,fps_60/1592094.bmp_pp89_L1_V1_veridical_freeview_isoFalse_fps60.mp4,3.1200000000000045,None,0,10,10,10,,,,,223.46333460044116,227.00671770004556,227.00671770004556,230.10759100038558,230.10759100038558,['1'],[0.6666382998228073],233.1068926001899,233.1068926001899,,,subject_14,1,2023-09-06_15h44.40.607,run_1,2023.1.2,59.61500621763571,
1,112.07,scrambled,fps_60/713807.bmp_pp152_L2_V1_scrambled_freeview_isoFalse_fps60.mp4,2.9799999999999898,None,0,11,11,11,,,,,233.1068926001899,236.4729249002412,236.4729249002412,239.57644630037248,239.57644630037248,None,,,,,,subject_14,1,2023-09-06_15h44.40.607,run_1,2023.1.2,59.61500621763571,
1,122.94,veridical,fps_60/1592836.bmp_pp64_L1_V1_veridical_freeview_isoFalse_fps60.mp4,4.8700000000000045,None,0,12,12,12,,,,,242.59026210010052,247.90532550029457,247.90532550029457,251.0145372003317,251.0145372003317,['1'],[1.3928340999409556],254.0234523001127,254.0234523001127,,,subject_14,1,2023-09-06_15h44.40.607,run_1,2023.1.2,59.61500621763571,
1,131.58,veridical,fps_60/1592254.bmp_pp82_L2_V1_veridical_freeview_isoFalse_fps60.mp4,2.640000000000015,None,0,13,13,13,,,,,254.0234523001127,257.0444029001519,257.0444029001519,260.18410210032016,260.18410210032016,['1'],[0.6397371999919415],263.1909091002308,263.1909091002308,,,subject_14,1,2023-09-06_15h44.40.607,run_1,2023.1.2,59.61500621763571,
1,143.68,veridical,fps_60/713330.bmp_pp51_L1_V1_veridical_freeview_isoFalse_fps60.mp4,6.099999999999994,None,0,14,14,14,,,,,263.1909091002308,269.7076618000865,269.7076618000865,272.7799173002131,272.7799173002131,['2'],[2.5107374996878207],275.790089700371,275.790089700371,,,subject_14,1,2023-09-06_15h44.40.607,run_1,2023.1.2,59.61500621763571,
1,152.71,scrambled,fps_60/498155.bmp_pp99_L2_V1_scrambled_freeview_isoFalse_fps60.mp4,3.030000000000001,None,0,15,15,15,,,,,275.790089700371,279.2185148000717,279.2185148000717,282.32376110041514,282.32376110041514,['1'],[0.48370399978011847],285.3234620001167,285.3234620001167,,,subject_14,1,2023-09-06_15h44.40.607,run_1,2023.1.2,59.61500621763571,
1,162.9,veridical,fps_60/1160247.bmp_pp99_L2_V1_veridical_freeview_isoFalse_fps60.mp4,4.189999999999998,None,0,16,16,16,,,,,285.3234620001167,289.9188099000603,289.9188099000603,293.0063590002246,293.0063590002246,['2'],[1.6178089999593794],296.0107631003484,296.0107631003484,,,subject_14,1,2023-09-06_15h44.40.607,run_1,2023.1.2,59.61500621763571,
1,171.48,veridical,fps_60/498155.bmp_pp99_L2_V1_veridical_freeview_isoFalse_fps60.mp4,2.579999999999984,None,0,17,17,17,,,,,296.0107631003484,298.9825406000018,298.9825406000018,302.06773850042373,302.06773850042373,['1'],[0.6166813001036644],,,,,subject_14,1,2023-09-06_15h44.40.607,run_1,2023.1.2,59.61500621763571,
1,180.29,scrambled,fps_60/1592254.bmp_pp82_L2_V1_scrambled_freeview_isoFalse_fps60.mp4,2.8100000000000023,None,0,18,18,18,,,,,305.0802847002633,308.21272550011054,308.21272550011054,311.3340681004338,311.3340681004338,['1'],[0.7115392996929586],314.340728700161,314.340728700161,,,subject_14,1,2023-09-06_15h44.40.607,run_1,2023.1.2,59.61500621763571,
1,189.35,scrambled,fps_60/1592836.bmp_pp64_L1_V1_scrambled_freeview_isoFalse_fps60.mp4,3.0600000000000023,None,0,19,19,19,,,,,314.340728700161,317.7954016001895,317.7954016001895,320.917086600326,320.917086600326,['1'],[2.6234126002527773],323.9234809000045,323.9234809000045,,,subject_14,1,2023-09-06_15h44.40.607,run_1,2023.1.2,59.61500621763571,
,,,,,,,,,,,,,,,,,,,,,,,323.9234809000045,333.9232419002801,,,,,,,
