run,start_time,type,moviestim,jitters,frames,trials.thisRepN,trials.thisTrialN,trials.thisN,trials.thisIndex,fix1.started,welcome_key.started,welcome_key.keys,welcome_key.rt,fix3.started,fix3.stopped,movie.started,text_15.started,key_resp_9.started,text_15.stopped,key_resp_9.stopped,key_resp_9.keys,key_resp_9.rt,fix4.started,fix4.stopped,participant,session,date,expName,psychopyVersion,frameRate,
,,,,,,,,,,13.707366000395268,13.707366000395268,['equal'],[17.43896029982716],,,,,,,,,,,,subject_15,3,2023-09-07_19h08.15.504,run_1,2023.1.2,59.92128741136635,
3,10.0,veridical,fps_60/285948.bmp_pp64_L1_V1_veridical_freeview_isoFalse_fps60.mp4,10.0,None,0,0,0,0,,,,,31.164362200070173,41.53453370044008,41.53453370044008,44.61866020038724,44.61866020038724,47.62187200039625,47.62187200039625,['1'],[0.3304846999235451],,,subject_15,3,2023-09-07_19h08.15.504,run_1,2023.1.2,59.92128741136635,
3,18.94,veridical,fps_60/713285.bmp_pp53_L2_V1_veridical_freeview_isoFalse_fps60.mp4,2.9400000000000013,None,0,1,1,1,,,,,47.62187200039625,50.937327900435776,50.937327900435776,54.041603500023484,54.041603500023484,57.04854480037466,57.04854480037466,['1'],[0.4198540998622775],,,subject_15,3,2023-09-07_19h08.15.504,run_1,2023.1.2,59.92128741136635,
3,27.57,veridical,fps_60/1592530.bmp_pp75_L1_V1_veridical_freeview_isoFalse_fps60.mp4,2.629999999999999,None,0,2,2,2,,,,,57.04854480037466,60.12340410007164,60.12340410007164,63.242441500071436,63.242441500071436,,,['1'],[0.3753587999381125],,,subject_15,3,2023-09-07_19h08.15.504,run_1,2023.1.2,59.92128741136635,
3,37.25,scrambled,fps_60/1593056.bmp_pp93_L1_V1_scrambled_freeview_isoFalse_fps60.mp4,3.68,None,0,3,3,3,,,,,66.25633340002969,70.3580802003853,70.3580802003853,73.4653621003963,73.4653621003963,,,['1'],[0.3808049997314811],,,subject_15,3,2023-09-07_19h08.15.504,run_1,2023.1.2,59.92128741136635,
3,45.98,scrambled,fps_60/713285.bmp_pp53_L2_V1_scrambled_freeview_isoFalse_fps60.mp4,2.729999999999997,None,0,4,4,4,,,,,76.47887520026416,79.56903780018911,79.56903780018911,82.69351040013134,82.69351040013134,85.69552910001948,85.69552910001948,['1'],[0.4498230000026524],,,subject_15,3,2023-09-07_19h08.15.504,run_1,2023.1.2,59.92128741136635,
3,55.35,veridical,fps_60/713017.bmp_pp82_L2_V1_veridical_freeview_isoFalse_fps60.mp4,3.3700000000000045,None,0,5,5,5,,,,,85.69552910001948,89.45049860002473,89.45049860002473,92.55389800015837,92.55389800015837,,,None,,,,subject_15,3,2023-09-07_19h08.15.504,run_1,2023.1.2,59.92128741136635,
3,67.86,scrambled,fps_60/1592530.bmp_pp75_L1_V1_scrambled_freeview_isoFalse_fps60.mp4,6.509999999999998,None,0,6,6,6,,,,,95.56728580035269,102.51662520039827,102.51662520039827,105.58895920030773,105.58895920030773,108.60089010000229,108.60089010000229,['1'],[0.26270069973543286],,,subject_15,3,2023-09-07_19h08.15.504,run_1,2023.1.2,59.92128741136635,
3,77.55,scrambled,fps_60/1159870.bmp_pp69_L3_V1_scrambled_freeview_isoFalse_fps60.mp4,3.6899999999999977,None,0,7,7,7,,,,,108.60089010000229,112.72869000025094,112.72869000025094,115.80140480026603,115.80140480026603,,,['1'],[0.3356439000926912],,,subject_15,3,2023-09-07_19h08.15.504,run_1,2023.1.2,59.92128741136635,
3,85.78,scrambled,fps_60/713017.bmp_pp82_L2_V1_scrambled_freeview_isoFalse_fps60.mp4,2.230000000000004,None,0,8,8,8,,,,,118.81575920013711,121.45287200016901,121.45287200016901,124.52864160016179,124.52864160016179,127.52884960034862,127.52884960034862,['1'],[0.28399649960920215],,,subject_15,3,2023-09-07_19h08.15.504,run_1,2023.1.2,59.92128741136635,
3,98.48,veridical,fps_60/1160227.bmp_pp94_L2_V1_veridical_freeview_isoFalse_fps60.mp4,6.700000000000003,None,0,9,9,9,,,,,127.52884960034862,134.59488830016926,134.59488830016926,137.7105787000619,137.7105787000619,140.71240300033242,140.71240300033242,['1'],[0.5518772001378238],,,subject_15,3,2023-09-07_19h08.15.504,run_1,2023.1.2,59.92128741136635,
3,108.18,veridical,fps_60/1159870.bmp_pp69_L3_V1_veridical_freeview_isoFalse_fps60.mp4,3.700000000000003,None,0,10,10,10,,,,,140.71240300033242,144.87127290014178,144.87127290014178,147.9519407004118,147.9519407004118,150.96206920035183,150.96206920035183,['1'],[0.36096249986439943],,,subject_15,3,2023-09-07_19h08.15.504,run_1,2023.1.2,59.92128741136635,
3,116.6,veridical,fps_60/1593056.bmp_pp93_L1_V1_veridical_freeview_isoFalse_fps60.mp4,2.4199999999999875,None,0,11,11,11,,,,,150.96206920035183,153.82560360012576,153.82560360012576,156.95620600041002,156.95620600041002,159.96187380002812,159.96187380002812,['1'],[0.6773806000128388],,,subject_15,3,2023-09-07_19h08.15.504,run_1,2023.1.2,59.92128741136635,
3,124.9,veridical,fps_60/1159325.bmp_pp67_L2_V1_veridical_freeview_isoFalse_fps60.mp4,2.300000000000012,None,0,12,12,12,,,,,159.96187380002812,162.68415550002828,162.68415550002828,165.78385420003906,165.78385420003906,,,['1'],[1.4082227000035346],,,subject_15,3,2023-09-07_19h08.15.504,run_1,2023.1.2,59.92128741136635,
3,135.79,scrambled,fps_60/713135.bmp_pp94_L2_V1_scrambled_freeview_isoFalse_fps60.mp4,4.889999999999986,None,0,13,13,13,,,,,168.7952081002295,174.14376080036163,174.14376080036163,177.22830490022898,177.22830490022898,180.23190470039845,180.23190470039845,['1'],[0.4340166002511978],,,subject_15,3,2023-09-07_19h08.15.504,run_1,2023.1.2,59.92128741136635,
3,146.12,scrambled,fps_60/1159325.bmp_pp67_L2_V1_scrambled_freeview_isoFalse_fps60.mp4,4.3300000000000125,None,0,14,14,14,,,,,180.23190470039845,184.98289790004492,184.98289790004492,188.05073510017246,188.05073510017246,191.05131100025028,191.05131100025028,['1'],[0.8450508001260459],,,subject_15,3,2023-09-07_19h08.15.504,run_1,2023.1.2,59.92128741136635,
3,155.36,veridical,fps_60/1160049.bmp_pp79_L2_V1_veridical_freeview_isoFalse_fps60.mp4,3.240000000000009,None,0,15,15,15,,,,,191.05131100025028,194.7146651004441,194.7146651004441,197.83909060014412,197.83909060014412,,,['1'],[0.41537540033459663],,,subject_15,3,2023-09-07_19h08.15.504,run_1,2023.1.2,59.92128741136635,
3,166.31,veridical,fps_60/713135.bmp_pp94_L2_V1_veridical_freeview_isoFalse_fps60.mp4,4.949999999999989,None,0,16,16,16,,,,,200.85360680008307,206.24687480041757,206.24687480041757,209.33587890025228,209.33587890025228,212.3375776000321,212.3375776000321,['1'],[0.348764699883759],,,subject_15,3,2023-09-07_19h08.15.504,run_1,2023.1.2,59.92128741136635,
3,174.33,scrambled,fps_60/1160049.bmp_pp79_L2_V1_scrambled_freeview_isoFalse_fps60.mp4,2.0200000000000102,None,0,17,17,17,,,,,212.3375776000321,214.68978300038725,214.68978300038725,217.81151710031554,217.81151710031554,220.8117443001829,220.8117443001829,['1'],[0.6342639997601509],,,subject_15,3,2023-09-07_19h08.15.504,run_1,2023.1.2,59.92128741136635,
3,183.48,scrambled,fps_60/1160227.bmp_pp94_L2_V1_scrambled_freeview_isoFalse_fps60.mp4,3.1499999999999773,None,0,18,18,18,,,,,220.8117443001829,224.33696220023558,224.33696220023558,227.4557459000498,227.4557459000498,230.46173680014908,230.46173680014908,['2'],[0.9899672996252775],,,subject_15,3,2023-09-07_19h08.15.504,run_1,2023.1.2,59.92128741136635,
3,191.98,scrambled,fps_60/285948.bmp_pp64_L1_V1_scrambled_freeview_isoFalse_fps60.mp4,2.5,None,0,19,19,19,,,,,230.46173680014908,233.29380580037832,233.29380580037832,236.41080200020224,236.41080200020224,239.41165600018576,239.41165600018576,None,,,,subject_15,3,2023-09-07_19h08.15.504,run_1,2023.1.2,59.92128741136635,
,,,,,,,,,,,,,,,,,,,,,,,239.41165600018576,249.4117306000553,,,,,,,
