run,start_time,type,moviestim,jitters,frames,trials.thisRepN,trials.thisTrialN,trials.thisN,trials.thisIndex,fix1.started,welcome_key.started,welcome_key.keys,welcome_key.rt,fix3.started,fix3.stopped,movie.started,text_15.started,key_resp_9.started,text_15.stopped,key_resp_9.stopped,key_resp_9.keys,key_resp_9.rt,fix4.started,fix4.stopped,participant,session,date,expName,psychopyVersion,frameRate,
,,,,,,,,,,16.72770110005513,16.72770110005513,['equal'],[17.44456270011142],,,,,,,,,,,,subject_11,3,2023-09-01_08h47.44.987,run_1,2023.1.2,59.90104342010612,
3,10.0,veridical,fps_60/285948.bmp_pp64_L1_V1_veridical_freeview_isoFalse_fps60.mp4,10.0,None,0,0,0,0,,,,,34.18816550006159,44.52081219991669,44.52081219991669,47.60632009990513,47.60632009990513,50.61031899997033,50.61031899997033,['1'],[0.3340396999847144],,,subject_11,3,2023-09-01_08h47.44.987,run_1,2023.1.2,59.90104342010612,
3,18.94,veridical,fps_60/713285.bmp_pp53_L2_V1_veridical_freeview_isoFalse_fps60.mp4,2.9400000000000013,None,0,1,1,1,,,,,50.61031899997033,53.96085890009999,53.96085890009999,57.08331099990755,57.08331099990755,60.08826319989748,60.08826319989748,['1'],[0.4111156000290066],,,subject_11,3,2023-09-01_08h47.44.987,run_1,2023.1.2,59.90104342010612,
3,27.57,veridical,fps_60/1592530.bmp_pp75_L1_V1_veridical_freeview_isoFalse_fps60.mp4,2.629999999999999,None,0,2,2,2,,,,,60.08826319989748,63.119977599941194,63.119977599941194,66.24263889994472,66.24263889994472,69.24398180004209,69.24398180004209,['1'],[1.2993815001100302],,,subject_11,3,2023-09-01_08h47.44.987,run_1,2023.1.2,59.90104342010612,
3,37.25,scrambled,fps_60/1593056.bmp_pp93_L1_V1_scrambled_freeview_isoFalse_fps60.mp4,3.68,None,0,3,3,3,,,,,69.24398180004209,73.36029509990476,73.36029509990476,76.46299479994923,76.46299479994923,,,['1'],[0.8842790999915451],,,subject_11,3,2023-09-01_08h47.44.987,run_1,2023.1.2,59.90104342010612,
3,45.98,scrambled,fps_60/713285.bmp_pp53_L2_V1_scrambled_freeview_isoFalse_fps60.mp4,2.729999999999997,None,0,4,4,4,,,,,79.47486430010758,82.59428959991783,82.59428959991783,85.71449990011752,85.71449990011752,88.72167450003326,88.72167450003326,['2'],[0.4526901999488473],,,subject_11,3,2023-09-01_08h47.44.987,run_1,2023.1.2,59.90104342010612,
3,55.35,veridical,fps_60/713017.bmp_pp82_L2_V1_veridical_freeview_isoFalse_fps60.mp4,3.3700000000000045,None,0,5,5,5,,,,,88.72167450003326,92.49037000001408,92.49037000001408,95.59452400007285,95.59452400007285,98.60484050004743,98.60484050004743,['1'],[0.8275881998706609],,,subject_11,3,2023-09-01_08h47.44.987,run_1,2023.1.2,59.90104342010612,
3,67.86,scrambled,fps_60/1592530.bmp_pp75_L1_V1_scrambled_freeview_isoFalse_fps60.mp4,6.509999999999998,None,0,6,6,6,,,,,98.60484050004743,105.50060479994863,105.50060479994863,108.59084339998662,108.59084339998662,111.59550260007381,111.59550260007381,['2'],[0.7617845998611301],,,subject_11,3,2023-09-01_08h47.44.987,run_1,2023.1.2,59.90104342010612,
3,77.55,scrambled,fps_60/1159870.bmp_pp69_L3_V1_scrambled_freeview_isoFalse_fps60.mp4,3.6899999999999977,None,0,7,7,7,,,,,111.59550260007381,115.68754719989374,115.68754719989374,118.76244580000639,118.76244580000639,121.77153160003945,121.77153160003945,['2'],[1.4001399998087436],,,subject_11,3,2023-09-01_08h47.44.987,run_1,2023.1.2,59.90104342010612,
3,85.78,scrambled,fps_60/713017.bmp_pp82_L2_V1_scrambled_freeview_isoFalse_fps60.mp4,2.230000000000004,None,0,8,8,8,,,,,121.77153160003945,124.35216769995168,124.35216769995168,127.4588091999758,127.4588091999758,,,['2'],[1.4466649000532925],,,subject_11,3,2023-09-01_08h47.44.987,run_1,2023.1.2,59.90104342010612,
3,98.48,veridical,fps_60/1160227.bmp_pp94_L2_V1_veridical_freeview_isoFalse_fps60.mp4,6.700000000000003,None,0,9,9,9,,,,,130.4714383999817,137.53597830003127,137.53597830003127,140.64164840010926,140.64164840010926,143.6408871000167,143.6408871000167,['2'],[1.2634788998402655],,,subject_11,3,2023-09-01_08h47.44.987,run_1,2023.1.2,59.90104342010612,
3,108.18,veridical,fps_60/1159870.bmp_pp69_L3_V1_veridical_freeview_isoFalse_fps60.mp4,3.700000000000003,None,0,10,10,10,,,,,143.6408871000167,147.75226760003716,147.75226760003716,150.8051813999191,150.8051813999191,153.80471300007775,153.80471300007775,['2'],[0.5509110998827964],,,subject_11,3,2023-09-01_08h47.44.987,run_1,2023.1.2,59.90104342010612,
3,116.6,veridical,fps_60/1593056.bmp_pp93_L1_V1_veridical_freeview_isoFalse_fps60.mp4,2.4199999999999875,None,0,11,11,11,,,,,153.80471300007775,156.62957029999234,156.62957029999234,159.76681519998237,159.76681519998237,162.7714901000727,162.7714901000727,['2'],[0.6963921000715345],,,subject_11,3,2023-09-01_08h47.44.987,run_1,2023.1.2,59.90104342010612,
3,124.9,veridical,fps_60/1159325.bmp_pp67_L2_V1_veridical_freeview_isoFalse_fps60.mp4,2.300000000000012,None,0,12,12,12,,,,,162.7714901000727,165.43744789995253,165.43744789995253,168.5420337000396,168.5420337000396,171.54224040010013,171.54224040010013,['1'],[0.35030229995027184],,,subject_11,3,2023-09-01_08h47.44.987,run_1,2023.1.2,59.90104342010612,
3,135.79,scrambled,fps_60/713135.bmp_pp94_L2_V1_scrambled_freeview_isoFalse_fps60.mp4,4.889999999999986,None,0,13,13,13,,,,,171.54224040010013,176.8480124999769,176.8480124999769,179.9566122998949,179.9566122998949,182.96432009991258,182.96432009991258,['2'],[0.8351631001569331],,,subject_11,3,2023-09-01_08h47.44.987,run_1,2023.1.2,59.90104342010612,
3,146.12,scrambled,fps_60/1159325.bmp_pp67_L2_V1_scrambled_freeview_isoFalse_fps60.mp4,4.3300000000000125,None,0,14,14,14,,,,,182.96432009991258,187.6863857000135,187.6863857000135,190.7566907000728,190.7566907000728,193.75772890006192,193.75772890006192,['2'],[0.8026860998943448],,,subject_11,3,2023-09-01_08h47.44.987,run_1,2023.1.2,59.90104342010612,
3,155.36,veridical,fps_60/1160049.bmp_pp79_L2_V1_veridical_freeview_isoFalse_fps60.mp4,3.240000000000009,None,0,15,15,15,,,,,193.75772890006192,197.3472829000093,197.3472829000093,200.45398780005053,200.45398780005053,203.45458119991235,203.45458119991235,['1'],[1.084363600006327],,,subject_11,3,2023-09-01_08h47.44.987,run_1,2023.1.2,59.90104342010612,
3,166.31,veridical,fps_60/713135.bmp_pp94_L2_V1_veridical_freeview_isoFalse_fps60.mp4,4.949999999999989,None,0,16,16,16,,,,,203.45458119991235,208.79722699988633,208.79722699988633,211.8588252000045,211.8588252000045,,,['1'],[0.7506639999337494],,,subject_11,3,2023-09-01_08h47.44.987,run_1,2023.1.2,59.90104342010612,
3,174.33,scrambled,fps_60/1160049.bmp_pp79_L2_V1_scrambled_freeview_isoFalse_fps60.mp4,2.0200000000000102,None,0,17,17,17,,,,,214.8710562000051,217.20191400009207,217.20191400009207,220.32306939992122,220.32306939992122,,,['1'],[1.5154567998833954],,,subject_11,3,2023-09-01_08h47.44.987,run_1,2023.1.2,59.90104342010612,
3,183.48,scrambled,fps_60/1160227.bmp_pp94_L2_V1_scrambled_freeview_isoFalse_fps60.mp4,3.1499999999999773,None,0,18,18,18,,,,,223.33939939993434,226.8157597000245,226.8157597000245,229.95477219996974,229.95477219996974,232.95436899992637,232.95436899992637,['1'],[1.3863948001526296],,,subject_11,3,2023-09-01_08h47.44.987,run_1,2023.1.2,59.90104342010612,
3,191.98,scrambled,fps_60/285948.bmp_pp64_L1_V1_scrambled_freeview_isoFalse_fps60.mp4,2.5,None,0,19,19,19,,,,,232.95436899992637,235.7662271000445,235.7662271000445,238.87061779992655,238.87061779992655,241.87118849996477,241.87118849996477,['1'],[0.8237888000439852],,,subject_11,3,2023-09-01_08h47.44.987,run_1,2023.1.2,59.90104342010612,
,,,,,,,,,,,,,,,,,,,,,,,241.87118849996477,251.87094919988886,,,,,,,
