run,start_time,type,moviestim,jitters,frames,trials.thisRepN,trials.thisTrialN,trials.thisN,trials.thisIndex,fix1.started,welcome_key.started,welcome_key.keys,welcome_key.rt,fix3.started,fix3.stopped,movie.started,text_15.started,key_resp_9.started,key_resp_9.keys,key_resp_9.rt,text_15.stopped,key_resp_9.stopped,fix4.started,fix4.stopped,participant,session,date,expName,psychopyVersion,frameRate,
,,,,,,,,,,14.604489999823272,14.604489999823272,['equal'],[15.234570399858057],,,,,,,,,,,,subject_8,6,2023-08-30_17h07.57.107,run_1,2023.1.2,60.02166788927333,
6,10.0,veridical,fps_60/1159329.bmp_pp95_L2_V1_veridical_freeview_isoFalse_fps60.mp4,10.0,None,0,0,0,0,,,,,29.855147199938074,40.18336859997362,40.18336859997362,43.248749000020325,43.248749000020325,['1'],[0.5725440999958664],,,,,subject_8,6,2023-08-30_17h07.57.107,run_1,2023.1.2,60.02166788927333,
6,21.84,scrambled,fps_60/713274.bmp_pp91_L3_V1_scrambled_freeview_isoFalse_fps60.mp4,5.84,None,0,1,1,1,,,,,46.26129399985075,52.536688699852675,52.536688699852675,55.61102780001238,55.61102780001238,['1'],[1.199243500130251],58.61696120002307,58.61696120002307,,,subject_8,6,2023-08-30_17h07.57.107,run_1,2023.1.2,60.02166788927333,
6,29.93,veridical,fps_60/1159813.bmp_pp88_L2_V1_veridical_freeview_isoFalse_fps60.mp4,2.09,None,0,2,2,2,,,,,58.61696120002307,61.13962949998677,61.13962949998677,64.25690859998576,64.25690859998576,['1'],[0.6669765000697225],67.25814269995317,67.25814269995317,,,subject_8,6,2023-08-30_17h07.57.107,run_1,2023.1.2,60.02166788927333,
6,43.81,scrambled,fps_60/1592747.bmp_pp54_L2_V1_scrambled_freeview_isoFalse_fps60.mp4,7.880000000000003,None,0,3,3,3,,,,,67.25814269995317,75.58903459995054,75.58903459995054,78.67142559983768,78.67142559983768,['2'],[0.7419344000518322],81.67188359983265,81.67188359983265,,,subject_8,6,2023-08-30_17h07.57.107,run_1,2023.1.2,60.02166788927333,
6,52.41,veridical,fps_60/1591977.bmp_pp58_L1_V1_veridical_freeview_isoFalse_fps60.mp4,2.5999999999999943,None,0,4,4,4,,,,,81.67188359983265,84.70465629990213,84.70465629990213,87.83980299998075,87.83980299998075,['1'],[0.5733761999290437],,,,,subject_8,6,2023-08-30_17h07.57.107,run_1,2023.1.2,60.02166788927333,
6,61.04,veridical,fps_60/1160168.bmp_pp54_L2_V1_veridical_freeview_isoFalse_fps60.mp4,2.6300000000000026,None,0,5,5,5,,,,,90.85131619987078,93.92798629985191,93.92798629985191,97.05340410000645,97.05340410000645,['2'],[0.9328687000088394],100.06081929989159,100.06081929989159,,,subject_8,6,2023-08-30_17h07.57.107,run_1,2023.1.2,60.02166788927333,
6,69.21,veridical,fps_60/1592303.bmp_pp84_L3_V1_veridical_freeview_isoFalse_fps60.mp4,2.1699999999999946,None,0,6,6,6,,,,,100.06081929989159,102.59325729985721,102.59325729985721,105.70029109995812,105.70029109995812,['1'],[0.6332618000451475],108.7050249997992,108.7050249997992,,,subject_8,6,2023-08-30_17h07.57.107,run_1,2023.1.2,60.02166788927333,
6,77.65,veridical,fps_60/1592747.bmp_pp54_L2_V1_veridical_freeview_isoFalse_fps60.mp4,2.440000000000012,None,0,7,7,7,,,,,108.7050249997992,111.5576406000182,111.5576406000182,114.67449759994633,114.67449759994633,['1'],[0.650873800041154],,,,,subject_8,6,2023-08-30_17h07.57.107,run_1,2023.1.2,60.02166788927333,
6,86.58,veridical,fps_60/1159440.bmp_pp64_L1_V1_veridical_freeview_isoFalse_fps60.mp4,2.9299999999999926,None,0,8,8,8,,,,,117.68834779993631,120.99270970001817,120.99270970001817,124.10907959984615,124.10907959984615,['1'],[0.734697800129652],127.11253779986873,127.11253779986873,,,subject_8,6,2023-08-30_17h07.57.107,run_1,2023.1.2,60.02166788927333,
6,96.2,scrambled,fps_60/150474.bmp_pp57_L1_V1_scrambled_freeview_isoFalse_fps60.mp4,3.620000000000005,None,0,9,9,9,,,,,127.11253779986873,131.22378759994172,131.22378759994172,134.32524389983155,134.32524389983155,['1'],[0.7072209999896586],137.33655729983002,137.33655729983002,,,subject_8,6,2023-08-30_17h07.57.107,run_1,2023.1.2,60.02166788927333,
6,106.26,scrambled,fps_60/1160168.bmp_pp54_L2_V1_scrambled_freeview_isoFalse_fps60.mp4,4.060000000000002,None,0,10,10,10,,,,,137.33655729983002,141.84917039982975,141.84917039982975,144.96115699992515,144.96115699992515,['1'],[1.1555388001725078],147.96271190000698,147.96271190000698,,,subject_8,6,2023-08-30_17h07.57.107,run_1,2023.1.2,60.02166788927333,
6,115.03,veridical,fps_60/285993.bmp_pp67_L2_V1_veridical_freeview_isoFalse_fps60.mp4,2.769999999999996,None,0,11,11,11,,,,,147.96271190000698,151.10834979987703,151.10834979987703,154.21028080000542,154.21028080000542,['2'],[1.5700487000867724],,,,,subject_8,6,2023-08-30_17h07.57.107,run_1,2023.1.2,60.02166788927333,
6,129.34,scrambled,fps_60/1592303.bmp_pp84_L3_V1_scrambled_freeview_isoFalse_fps60.mp4,8.310000000000002,None,0,12,12,12,,,,,157.22435799986124,165.94490839983337,165.94490839983337,169.0220550999511,169.0220550999511,['2'],[0.8835024000145495],172.02146840002388,172.02146840002388,,,subject_8,6,2023-08-30_17h07.57.107,run_1,2023.1.2,60.02166788927333,
6,137.36,scrambled,fps_60/285993.bmp_pp67_L2_V1_scrambled_freeview_isoFalse_fps60.mp4,2.0200000000000102,None,0,13,13,13,,,,,172.02146840002388,174.42014830000699,174.42014830000699,177.50552859995514,177.50552859995514,['1'],[1.0729606000240892],,,,,subject_8,6,2023-08-30_17h07.57.107,run_1,2023.1.2,60.02166788927333,
6,145.43,scrambled,fps_60/1159813.bmp_pp88_L2_V1_scrambled_freeview_isoFalse_fps60.mp4,2.069999999999993,None,0,14,14,14,,,,,180.52014949987642,182.88937619980425,182.88937619980425,186.0110904998146,186.0110904998146,['1'],[0.892540100030601],189.0180758999195,189.0180758999195,,,subject_8,6,2023-08-30_17h07.57.107,run_1,2023.1.2,60.02166788927333,
6,155.23,scrambled,fps_60/1591977.bmp_pp58_L1_V1_scrambled_freeview_isoFalse_fps60.mp4,3.799999999999983,None,0,15,15,15,,,,,189.0180758999195,193.2428003998939,193.2428003998939,196.35387229989283,196.35387229989283,['2'],[0.9702862999401987],199.36170180002227,199.36170180002227,,,subject_8,6,2023-08-30_17h07.57.107,run_1,2023.1.2,60.02166788927333,
6,165.81,scrambled,fps_60/1159329.bmp_pp95_L2_V1_scrambled_freeview_isoFalse_fps60.mp4,4.5800000000000125,None,0,16,16,16,,,,,199.36170180002227,204.34757329989225,204.34757329989225,207.44044099980965,207.44044099980965,['1'],[0.6315876001026481],,,,,subject_8,6,2023-08-30_17h07.57.107,run_1,2023.1.2,60.02166788927333,
6,174.16,veridical,fps_60/150474.bmp_pp57_L1_V1_veridical_freeview_isoFalse_fps60.mp4,2.3499999999999943,None,0,17,17,17,,,,,210.45481299981475,213.17897939984687,213.17897939984687,216.30041749984957,216.30041749984957,['1'],[1.250448599923402],219.30481039988808,219.30481039988808,,,subject_8,6,2023-08-30_17h07.57.107,run_1,2023.1.2,60.02166788927333,
6,183.28,scrambled,fps_60/1159440.bmp_pp64_L1_V1_scrambled_freeview_isoFalse_fps60.mp4,3.1200000000000045,None,0,18,18,18,,,,,219.30481039988808,222.75867339991964,222.75867339991964,225.87864529993385,225.87864529993385,['1'],[0.5995783000253141],228.88838170003146,228.88838170003146,,,subject_8,6,2023-08-30_17h07.57.107,run_1,2023.1.2,60.02166788927333,
6,191.93,veridical,fps_60/713274.bmp_pp91_L3_V1_veridical_freeview_isoFalse_fps60.mp4,2.6500000000000057,None,0,19,19,19,,,,,228.88838170003146,231.8652961999178,231.8652961999178,234.97114959987812,234.97114959987812,['1'],[0.8180750999599695],237.9716523999814,237.9716523999814,,,subject_8,6,2023-08-30_17h07.57.107,run_1,2023.1.2,60.02166788927333,
,,,,,,,,,,,,,,,,,,,,,,,237.9716523999814,247.9713928999845,,,,,,,
