run,start_time,type,moviestim,jitters,frames,trials.thisRepN,trials.thisTrialN,trials.thisN,trials.thisIndex,fix1.started,welcome_key.started,welcome_key.keys,welcome_key.rt,fix3.started,fix3.stopped,movie.started,text_15.started,key_resp_9.started,text_15.stopped,key_resp_9.stopped,key_resp_9.keys,key_resp_9.rt,fix4.started,participant,session,date,expName,psychopyVersion,frameRate,
,,,,,,,,,,17.74099380010739,17.74099380010739,['equal'],[13.83441499993205],,,,,,,,,,,subject_8,3,2023-08-30_16h54.17.471,run_1,2023.1.2,59.99275293200784,
3,10.0,veridical,fps_60/285948.bmp_pp64_L1_V1_veridical_freeview_isoFalse_fps60.mp4,10.0,None,0,0,0,0,,,,,31.594856300158426,41.99742200016044,41.99742200016044,45.08056219993159,45.08056219993159,48.08618580014445,48.08618580014445,['1'],[0.5195172000676394],,subject_8,3,2023-08-30_16h54.17.471,run_1,2023.1.2,59.99275293200784,
3,18.94,veridical,fps_60/713285.bmp_pp53_L2_V1_veridical_freeview_isoFalse_fps60.mp4,2.9400000000000013,None,0,1,1,1,,,,,48.08618580014445,51.45496769994497,51.45496769994497,54.57931810012087,54.57931810012087,57.58013999997638,57.58013999997638,['1'],[0.7744032999034971],,subject_8,3,2023-08-30_16h54.17.471,run_1,2023.1.2,59.99275293200784,
3,27.57,veridical,fps_60/1592530.bmp_pp75_L1_V1_veridical_freeview_isoFalse_fps60.mp4,2.629999999999999,None,0,2,2,2,,,,,57.58013999997638,60.635510799940675,60.635510799940675,63.75960550014861,63.75960550014861,66.7705002001021,66.7705002001021,['1'],[0.5044375997968018],,subject_8,3,2023-08-30_16h54.17.471,run_1,2023.1.2,59.99275293200784,
3,37.25,scrambled,fps_60/1593056.bmp_pp93_L1_V1_scrambled_freeview_isoFalse_fps60.mp4,3.68,None,0,3,3,3,,,,,66.7705002001021,70.8388746001292,70.8388746001292,73.95956450002268,73.95956450002268,76.97057730006054,76.97057730006054,['2'],[1.080486699938774],,subject_8,3,2023-08-30_16h54.17.471,run_1,2023.1.2,59.99275293200784,
3,45.98,scrambled,fps_60/713285.bmp_pp53_L2_V1_scrambled_freeview_isoFalse_fps60.mp4,2.729999999999997,None,0,4,4,4,,,,,76.97057730006054,80.10790099995211,80.10790099995211,83.2310981999617,83.2310981999617,,,['2'],[0.36897640000097454],,subject_8,3,2023-08-30_16h54.17.471,run_1,2023.1.2,59.99275293200784,
3,55.35,veridical,fps_60/713017.bmp_pp82_L2_V1_veridical_freeview_isoFalse_fps60.mp4,3.3700000000000045,None,0,5,5,5,,,,,86.24389149993658,90.01708150003105,90.01708150003105,93.11631470010616,93.11631470010616,96.122360000154,96.122360000154,['2'],[0.5809476000722498],,subject_8,3,2023-08-30_16h54.17.471,run_1,2023.1.2,59.99275293200784,
3,67.86,scrambled,fps_60/1592530.bmp_pp75_L1_V1_scrambled_freeview_isoFalse_fps60.mp4,6.509999999999998,None,0,6,6,6,,,,,96.122360000154,103.03580430010334,103.03580430010334,106.11395020014606,106.11395020014606,109.11730000004172,109.11730000004172,['1'],[0.6351799999829382],,subject_8,3,2023-08-30_16h54.17.471,run_1,2023.1.2,59.99275293200784,
3,77.55,scrambled,fps_60/1159870.bmp_pp69_L3_V1_scrambled_freeview_isoFalse_fps60.mp4,3.6899999999999977,None,0,7,7,7,,,,,109.11730000004172,113.21887560002506,113.21887560002506,116.27349980012514,116.27349980012514,119.27801749994978,119.27801749994978,['1'],[0.6356053000781685],,subject_8,3,2023-08-30_16h54.17.471,run_1,2023.1.2,59.99275293200784,
3,85.78,scrambled,fps_60/713017.bmp_pp82_L2_V1_scrambled_freeview_isoFalse_fps60.mp4,2.230000000000004,None,0,8,8,8,,,,,119.27801749994978,121.93298300006427,121.93298300006427,125.03073840006255,125.03073840006255,128.03652500011958,128.03652500011958,['1'],[0.53619320015423],,subject_8,3,2023-08-30_16h54.17.471,run_1,2023.1.2,59.99275293200784,
3,98.48,veridical,fps_60/1160227.bmp_pp94_L2_V1_veridical_freeview_isoFalse_fps60.mp4,6.700000000000003,None,0,9,9,9,,,,,128.03652500011958,135.15845300001092,135.15845300001092,138.2650244999677,138.2650244999677,141.27482960000634,141.27482960000634,['1'],[0.833779799984768],,subject_8,3,2023-08-30_16h54.17.471,run_1,2023.1.2,59.99275293200784,
3,108.18,veridical,fps_60/1159870.bmp_pp69_L3_V1_veridical_freeview_isoFalse_fps60.mp4,3.700000000000003,None,0,10,10,10,,,,,141.27482960000634,145.39692039997317,145.39692039997317,148.47806710004807,148.47806710004807,151.48371709999628,151.48371709999628,['2'],[1.4071359001100063],,subject_8,3,2023-08-30_16h54.17.471,run_1,2023.1.2,59.99275293200784,
3,116.6,veridical,fps_60/1593056.bmp_pp93_L1_V1_veridical_freeview_isoFalse_fps60.mp4,2.4199999999999875,None,0,11,11,11,,,,,151.48371709999628,154.25835849996656,154.25835849996656,157.3957708000671,157.3957708000671,160.40067560016178,160.40067560016178,['1'],[0.5809983999934047],,subject_8,3,2023-08-30_16h54.17.471,run_1,2023.1.2,59.99275293200784,
3,124.9,veridical,fps_60/1159325.bmp_pp67_L2_V1_veridical_freeview_isoFalse_fps60.mp4,2.300000000000012,None,0,12,12,12,,,,,160.40067560016178,163.06753260013647,163.06753260013647,166.15273920004256,166.15273920004256,169.16110430005938,169.16110430005938,['1'],[0.5060896000359207],,subject_8,3,2023-08-30_16h54.17.471,run_1,2023.1.2,59.99275293200784,
3,135.79,scrambled,fps_60/713135.bmp_pp94_L2_V1_scrambled_freeview_isoFalse_fps60.mp4,4.889999999999986,None,0,13,13,13,,,,,169.16110430005938,174.4351139999926,174.4351139999926,177.5232321000658,177.5232321000658,180.52473199996166,180.52473199996166,['1'],[0.5399580001831055],,subject_8,3,2023-08-30_16h54.17.471,run_1,2023.1.2,59.99275293200784,
3,146.12,scrambled,fps_60/1159325.bmp_pp67_L2_V1_scrambled_freeview_isoFalse_fps60.mp4,4.3300000000000125,None,0,14,14,14,,,,,180.52473199996166,185.30393739999272,185.30393739999272,188.35923549998552,188.35923549998552,,,['1'],[0.7687255998607725],,subject_8,3,2023-08-30_16h54.17.471,run_1,2023.1.2,59.99275293200784,
3,155.36,veridical,fps_60/1160049.bmp_pp79_L2_V1_veridical_freeview_isoFalse_fps60.mp4,3.240000000000009,None,0,15,15,15,,,,,191.3719027999323,194.9741062000394,194.9741062000394,198.09272269997746,198.09272269997746,201.09180560009554,201.09180560009554,['1'],[0.9387043998576701],,subject_8,3,2023-08-30_16h54.17.471,run_1,2023.1.2,59.99275293200784,
3,166.31,veridical,fps_60/713135.bmp_pp94_L2_V1_veridical_freeview_isoFalse_fps60.mp4,4.949999999999989,None,0,16,16,16,,,,,201.09180560009554,206.49365980015136,206.49365980015136,209.58344130008481,209.58344130008481,212.59234760003164,212.59234760003164,['1'],[0.6367349000647664],,subject_8,3,2023-08-30_16h54.17.471,run_1,2023.1.2,59.99275293200784,
3,174.33,scrambled,fps_60/1160049.bmp_pp79_L2_V1_scrambled_freeview_isoFalse_fps60.mp4,2.0200000000000102,None,0,17,17,17,,,,,212.59234760003164,215.00221249996684,215.00221249996684,218.12286740005948,218.12286740005948,221.13361060013995,221.13361060013995,['1'],[0.6028264001943171],,subject_8,3,2023-08-30_16h54.17.471,run_1,2023.1.2,59.99275293200784,
3,183.48,scrambled,fps_60/1160227.bmp_pp94_L2_V1_scrambled_freeview_isoFalse_fps60.mp4,3.1499999999999773,None,0,18,18,18,,,,,221.13361060013995,224.66773160011508,224.66773160011508,227.7990570999682,227.7990570999682,,,['1'],[1.4173089999239892],,subject_8,3,2023-08-30_16h54.17.471,run_1,2023.1.2,59.99275293200784,
3,191.98,scrambled,fps_60/285948.bmp_pp64_L1_V1_scrambled_freeview_isoFalse_fps60.mp4,2.5,None,0,19,19,19,,,,,230.81026630010456,233.7073540999554,233.7073540999554,236.82845470006578,236.82845470006578,,,['1'],[0.6257696999236941],,subject_8,3,2023-08-30_16h54.17.471,run_1,2023.1.2,59.99275293200784,
,,,,,,,,,,,,,,,,,,,,,,,239.84182720002718,,,,,,,
