run,start_time,type,moviestim,jitters,frames,trials.thisRepN,trials.thisTrialN,trials.thisN,trials.thisIndex,fix1.started,welcome_key.started,welcome_key.keys,welcome_key.rt,fix3.started,fix3.stopped,movie.started,text_15.started,key_resp_9.started,text_15.stopped,key_resp_9.stopped,key_resp_9.keys,key_resp_9.rt,fix4.started,fix4.stopped,participant,session,date,expName,psychopyVersion,frameRate,
,,,,,,,,,,16.505925999999818,16.505925999999818,['equal'],[28.554862300000423],,,,,,,,,,,,subject_22,2,2023-11-03_17h05.08.274,run_1,2023.1.2,60.07831809558039,
2,10.0,scrambled,fps_60/150296.bmp_pp97_L3_V1_scrambled_freeview_isoFalse_fps60.mp4,10.0,None,0,0,0,0,,,,,45.07755149999957,55.24187040000015,55.24187040000015,58.365037599999596,58.365037599999596,61.377172399999836,61.377172399999836,['2'],[0.5625579999996262],,,subject_22,2,2023-11-03_17h05.08.274,run_1,2023.1.2,60.07831809558039,
2,18.86,veridical,fps_60/713519.bmp_pp84_L3_V1_veridical_freeview_isoFalse_fps60.mp4,2.8599999999999994,None,0,1,1,1,,,,,61.377172399999836,64.4737967000001,64.4737967000001,67.5880275999998,67.5880275999998,70.59394079999947,70.59394079999947,['2'],[0.8229214000002685],,,subject_22,2,2023-11-03_17h05.08.274,run_1,2023.1.2,60.07831809558039,
2,27.91,scrambled,fps_60/1159819.bmp_pp63_L1_V1_scrambled_freeview_isoFalse_fps60.mp4,3.0500000000000007,None,0,2,2,2,,,,,70.59394079999947,73.89427230000001,73.89427230000001,77.0073867000001,77.0073867000001,80.01051769999958,80.01051769999958,['1'],[0.45355440000003],,,subject_22,2,2023-11-03_17h05.08.274,run_1,2023.1.2,60.07831809558039,
2,37.06,veridical,fps_60/498396.bmp_pp152_L2_V1_veridical_freeview_isoFalse_fps60.mp4,3.150000000000002,None,0,3,3,3,,,,,80.01051769999958,83.40718449999986,83.40718449999986,86.52033140000003,86.52033140000003,89.52743329999976,89.52743329999976,['1'],[0.4902606999994532],,,subject_22,2,2023-11-03_17h05.08.274,run_1,2023.1.2,60.07831809558039,
2,45.1,scrambled,fps_60/713707.bmp_pp63_L1_V1_scrambled_freeview_isoFalse_fps60.mp4,2.039999999999999,None,0,4,4,4,,,,,89.52743329999976,91.81573870000011,91.81573870000011,94.92909719999989,94.92909719999989,,,['2'],[0.43168580000019574],,,subject_22,2,2023-11-03_17h05.08.274,run_1,2023.1.2,60.07831809558039,
2,54.79,veridical,fps_60/150296.bmp_pp97_L3_V1_veridical_freeview_isoFalse_fps60.mp4,3.6899999999999977,None,0,5,5,5,,,,,97.94385199999942,101.90011690000028,101.90011690000028,105.0257859000003,105.0257859000003,108.02719199999956,108.02719199999956,['2'],[0.7516343999996025],,,subject_22,2,2023-11-03_17h05.08.274,run_1,2023.1.2,60.07831809558039,
2,70.63,veridical,fps_60/285992.bmp_pp98_L1_V1_veridical_freeview_isoFalse_fps60.mp4,9.839999999999996,None,0,6,6,6,,,,,108.02719199999956,118.14675770000031,118.14675770000031,121.24010509999971,121.24010509999971,124.24413069999991,124.24413069999991,['1'],[0.47073510000063834],,,subject_22,2,2023-11-03_17h05.08.274,run_1,2023.1.2,60.07831809558039,
2,80.7,scrambled,fps_60/1159508.bmp_pp151_L1_V1_scrambled_freeview_isoFalse_fps60.mp4,4.070000000000007,None,0,7,7,7,,,,,124.24413069999991,128.5794108,128.5794108,131.7048351000003,131.7048351000003,134.71053699999993,134.71053699999993,['1'],[1.0558382999997775],,,subject_22,2,2023-11-03_17h05.08.274,run_1,2023.1.2,60.07831809558039,
2,89.59,scrambled,fps_60/713519.bmp_pp84_L3_V1_scrambled_freeview_isoFalse_fps60.mp4,2.890000000000001,None,0,8,8,8,,,,,134.71053699999993,137.8429587999999,137.8429587999999,140.9568776999995,140.9568776999995,143.9602804999995,143.9602804999995,['2'],[0.7706741000001784],,,subject_22,2,2023-11-03_17h05.08.274,run_1,2023.1.2,60.07831809558039,
2,98.25,veridical,fps_60/713707.bmp_pp63_L1_V1_veridical_freeview_isoFalse_fps60.mp4,2.6599999999999966,None,0,9,9,9,,,,,143.9602804999995,146.88022339999952,146.88022339999952,149.99230569999963,149.99230569999963,152.99387529999967,152.99387529999967,['2'],[0.5517352999995637],,,subject_22,2,2023-11-03_17h05.08.274,run_1,2023.1.2,60.07831809558039,
2,108.09,scrambled,fps_60/1592137.bmp_pp58_L1_V1_scrambled_freeview_isoFalse_fps60.mp4,3.8400000000000034,None,0,10,10,10,,,,,152.99387529999967,157.0993024999998,157.0993024999998,160.20958830000018,160.20958830000018,163.2106235000001,163.2106235000001,['1'],[0.7345414999999775],,,subject_22,2,2023-11-03_17h05.08.274,run_1,2023.1.2,60.07831809558039,
2,118.18,veridical,fps_60/1160140.bmp_pp151_L1_V1_veridical_freeview_isoFalse_fps60.mp4,4.090000000000003,None,0,11,11,11,,,,,163.2106235000001,167.5805674000003,167.5805674000003,170.70780250000007,170.70780250000007,173.71048539999992,173.71048539999992,['1'],[0.8362829999996393],,,subject_22,2,2023-11-03_17h05.08.274,run_1,2023.1.2,60.07831809558039,
2,127.51,veridical,fps_60/1592137.bmp_pp58_L1_V1_veridical_freeview_isoFalse_fps60.mp4,3.3299999999999983,None,0,12,12,12,,,,,173.71048539999992,177.29691249999996,177.29691249999996,180.42646239999976,180.42646239999976,183.42702459999964,183.42702459999964,['1'],[0.567790099999911],,,subject_22,2,2023-11-03_17h05.08.274,run_1,2023.1.2,60.07831809558039,
2,135.58,scrambled,fps_60/1160171.bmp_pp97_L3_V1_scrambled_freeview_isoFalse_fps60.mp4,2.0700000000000074,None,0,13,13,13,,,,,183.42702459999964,185.7317425000001,185.7317425000001,188.86179639999955,188.86179639999955,,,['2'],[0.6323597999999038],,,subject_22,2,2023-11-03_17h05.08.274,run_1,2023.1.2,60.07831809558039,
2,144.7,veridical,fps_60/1159819.bmp_pp63_L1_V1_veridical_freeview_isoFalse_fps60.mp4,3.119999999999976,None,0,14,14,14,,,,,191.8771872999996,195.2269796999999,195.2269796999999,198.34181549999994,198.34181549999994,201.3439282999998,201.3439282999998,['1'],[0.535479199999827],,,subject_22,2,2023-11-03_17h05.08.274,run_1,2023.1.2,60.07831809558039,
2,154.49,veridical,fps_60/1160171.bmp_pp97_L3_V1_veridical_freeview_isoFalse_fps60.mp4,3.790000000000021,None,0,15,15,15,,,,,201.3439282999998,205.39028039999994,205.39028039999994,208.48273289999997,208.48273289999997,211.49373959999957,211.49373959999957,['1'],[0.8113585000000967],,,subject_22,2,2023-11-03_17h05.08.274,run_1,2023.1.2,60.07831809558039,
2,162.95,scrambled,fps_60/285992.bmp_pp98_L1_V1_scrambled_freeview_isoFalse_fps60.mp4,2.4599999999999795,None,0,16,16,16,,,,,211.49373959999957,214.18755859999965,214.18755859999965,217.28394089999983,217.28394089999983,220.29381439999997,220.29381439999997,['1'],[0.6432337000005646],,,subject_22,2,2023-11-03_17h05.08.274,run_1,2023.1.2,60.07831809558039,
2,173.16,scrambled,fps_60/1160140.bmp_pp151_L1_V1_scrambled_freeview_isoFalse_fps60.mp4,4.210000000000008,None,0,17,17,17,,,,,220.29381439999997,224.7461347999997,224.7461347999997,227.87422530000003,227.87422530000003,230.8769655999995,230.8769655999995,['2'],[1.7367019000002983],,,subject_22,2,2023-11-03_17h05.08.274,run_1,2023.1.2,60.07831809558039,
2,183.78,veridical,fps_60/1159508.bmp_pp151_L1_V1_veridical_freeview_isoFalse_fps60.mp4,4.6200000000000045,None,0,18,18,18,,,,,230.8769655999995,235.75354189999962,235.75354189999962,238.87972360000003,238.87972360000003,,,['2'],[1.3143510999998398],,,subject_22,2,2023-11-03_17h05.08.274,run_1,2023.1.2,60.07831809558039,
2,191.81,scrambled,fps_60/498396.bmp_pp152_L2_V1_scrambled_freeview_isoFalse_fps60.mp4,2.030000000000001,None,0,19,19,19,,,,,241.8938509999998,244.15906859999996,244.15906859999996,247.27235269999983,247.27235269999983,250.27703939999992,250.27703939999992,['1'],[0.8882485000003726],,,subject_22,2,2023-11-03_17h05.08.274,run_1,2023.1.2,60.07831809558039,
,,,,,,,,,,,,,,,,,,,,,,,250.27703939999992,260.2767211999999,,,,,,,
