run,start_time,type,moviestim,jitters,frames,trials.thisRepN,trials.thisTrialN,trials.thisN,trials.thisIndex,fix1.started,welcome_key.started,welcome_key.keys,welcome_key.rt,fix3.started,fix3.stopped,movie.started,text_15.started,key_resp_9.started,key_resp_9.keys,key_resp_9.rt,text_15.stopped,key_resp_9.stopped,fix4.started,fix4.stopped,participant,session,date,expName,psychopyVersion,frameRate,
,,,,,,,,,,21.442000299983192,21.442000299983192,['equal'],[18.418634700006805],,,,,,,,,,,,subject_18,2,2023-10-06_16h42.10.249,run_1,2023.1.2,59.82421251864914,
2,10.0,scrambled,fps_60/150296.bmp_pp97_L3_V1_scrambled_freeview_isoFalse_fps60.mp4,10.0,None,0,0,0,0,,,,,39.876853499969,50.03840369998943,50.03840369998943,53.16207449999638,53.16207449999638,['2'],[1.4480460999766365],,,,,subject_18,2,2023-10-06_16h42.10.249,run_1,2023.1.2,59.82421251864914,
2,18.86,veridical,fps_60/713519.bmp_pp84_L3_V1_veridical_freeview_isoFalse_fps60.mp4,2.8599999999999994,None,0,1,1,1,,,,,56.176789799996186,59.28456339996774,59.28456339996774,62.39756239997223,62.39756239997223,['2'],[0.6630222999956459],65.41031079995446,65.41031079995446,,,subject_18,2,2023-10-06_16h42.10.249,run_1,2023.1.2,59.82421251864914,
2,27.91,scrambled,fps_60/1159819.bmp_pp63_L1_V1_scrambled_freeview_isoFalse_fps60.mp4,3.0500000000000007,None,0,2,2,2,,,,,65.41031079995446,68.71479870000621,68.71479870000621,71.82866080000531,71.82866080000531,['1'],[0.8647416000021622],,,,,subject_18,2,2023-10-06_16h42.10.249,run_1,2023.1.2,59.82421251864914,
2,37.06,veridical,fps_60/498396.bmp_pp152_L2_V1_veridical_freeview_isoFalse_fps60.mp4,3.150000000000002,None,0,3,3,3,,,,,74.8433587999898,78.23629869997967,78.23629869997967,81.34894070000155,81.34894070000155,['2'],[1.9777699999976903],84.36004519998096,84.36004519998096,,,subject_18,2,2023-10-06_16h42.10.249,run_1,2023.1.2,59.82421251864914,
2,45.1,scrambled,fps_60/713707.bmp_pp63_L1_V1_scrambled_freeview_isoFalse_fps60.mp4,2.039999999999999,None,0,4,4,4,,,,,84.36004519998096,86.64181969995843,86.64181969995843,89.75530319998506,89.75530319998506,['2'],[2.2048506999854],92.75979079998797,92.75979079998797,,,subject_18,2,2023-10-06_16h42.10.249,run_1,2023.1.2,59.82421251864914,
2,54.79,veridical,fps_60/150296.bmp_pp97_L3_V1_veridical_freeview_isoFalse_fps60.mp4,3.6899999999999977,None,0,5,5,5,,,,,92.75979079998797,96.715290299966,96.715290299966,99.84159319999162,99.84159319999162,['2'],[2.6356613999814726],102.84315109997988,102.84315109997988,,,subject_18,2,2023-10-06_16h42.10.249,run_1,2023.1.2,59.82421251864914,
2,70.63,veridical,fps_60/285992.bmp_pp98_L1_V1_veridical_freeview_isoFalse_fps60.mp4,9.839999999999996,None,0,6,6,6,,,,,102.84315109997988,112.95257699996,112.95257699996,116.04429799999343,116.04429799999343,['1'],[0.6657245000242256],119.04344280000078,119.04344280000078,,,subject_18,2,2023-10-06_16h42.10.249,run_1,2023.1.2,59.82421251864914,
2,80.7,scrambled,fps_60/1159508.bmp_pp151_L1_V1_scrambled_freeview_isoFalse_fps60.mp4,4.070000000000007,None,0,7,7,7,,,,,119.04344280000078,123.38940029998776,123.38940029998776,126.51454969996121,126.51454969996121,['1'],[1.4290899999905378],129.52693870000076,129.52693870000076,,,subject_18,2,2023-10-06_16h42.10.249,run_1,2023.1.2,59.82421251864914,
2,89.59,scrambled,fps_60/713519.bmp_pp84_L3_V1_scrambled_freeview_isoFalse_fps60.mp4,2.890000000000001,None,0,8,8,8,,,,,129.52693870000076,132.65217499999562,132.65217499999562,135.7495924999821,135.7495924999821,['2'],[1.1104786000214517],138.7597122999723,138.7597122999723,,,subject_18,2,2023-10-06_16h42.10.249,run_1,2023.1.2,59.82421251864914,
2,98.25,veridical,fps_60/713707.bmp_pp63_L1_V1_veridical_freeview_isoFalse_fps60.mp4,2.6599999999999966,None,0,9,9,9,,,,,138.7597122999723,141.66398389998358,141.66398389998358,144.77548809995642,144.77548809995642,['2'],[1.3684174999943934],147.77637259999756,147.77637259999756,,,subject_18,2,2023-10-06_16h42.10.249,run_1,2023.1.2,59.82421251864914,
2,108.09,scrambled,fps_60/1592137.bmp_pp58_L1_V1_scrambled_freeview_isoFalse_fps60.mp4,3.8400000000000034,None,0,10,10,10,,,,,147.77637259999756,151.897891599976,151.897891599976,155.00574900000356,155.00574900000356,['1'],[0.8208867000066675],158.00976489996538,158.00976489996538,,,subject_18,2,2023-10-06_16h42.10.249,run_1,2023.1.2,59.82421251864914,
2,118.18,veridical,fps_60/1160140.bmp_pp151_L1_V1_veridical_freeview_isoFalse_fps60.mp4,4.090000000000003,None,0,11,11,11,,,,,158.00976489996538,162.36287279997487,162.36287279997487,165.4890884999768,165.4890884999768,['1'],[1.1039906000369228],168.49332569999387,168.49332569999387,,,subject_18,2,2023-10-06_16h42.10.249,run_1,2023.1.2,59.82421251864914,
2,127.51,veridical,fps_60/1592137.bmp_pp58_L1_V1_veridical_freeview_isoFalse_fps60.mp4,3.3299999999999983,None,0,12,12,12,,,,,168.49332569999387,172.07904609997058,172.07904609997058,175.20794049999677,175.20794049999677,['1'],[0.685217400023248],178.21002719999524,178.21002719999524,,,subject_18,2,2023-10-06_16h42.10.249,run_1,2023.1.2,59.82421251864914,
2,135.58,scrambled,fps_60/1160171.bmp_pp97_L3_V1_scrambled_freeview_isoFalse_fps60.mp4,2.0700000000000074,None,0,13,13,13,,,,,178.21002719999524,180.53416019998258,180.53416019998258,183.66287759999977,183.66287759999977,['1'],[1.7805961999692954],,,,,subject_18,2,2023-10-06_16h42.10.249,run_1,2023.1.2,59.82421251864914,
2,144.7,veridical,fps_60/1159819.bmp_pp63_L1_V1_veridical_freeview_isoFalse_fps60.mp4,3.119999999999976,None,0,14,14,14,,,,,186.67639899998903,190.0516234000097,190.0516234000097,193.16428099997574,193.16428099997574,['1'],[0.6622883999953046],196.17652929999167,196.17652929999167,,,subject_18,2,2023-10-06_16h42.10.249,run_1,2023.1.2,59.82421251864914,
2,154.49,veridical,fps_60/1160171.bmp_pp97_L3_V1_veridical_freeview_isoFalse_fps60.mp4,3.790000000000021,None,0,15,15,15,,,,,196.17652929999167,200.2318885999848,200.2318885999848,203.34092230000533,203.34092230000533,['1'],[1.5522176999947987],206.3429785000044,206.3429785000044,,,subject_18,2,2023-10-06_16h42.10.249,run_1,2023.1.2,59.82421251864914,
2,162.95,scrambled,fps_60/285992.bmp_pp98_L1_V1_scrambled_freeview_isoFalse_fps60.mp4,2.4599999999999795,None,0,16,16,16,,,,,206.3429785000044,209.05812689999584,209.05812689999584,212.1721991999657,212.1721991999657,['1'],[1.3044047000003047],215.17635619995417,215.17635619995417,,,subject_18,2,2023-10-06_16h42.10.249,run_1,2023.1.2,59.82421251864914,
2,173.16,scrambled,fps_60/1160140.bmp_pp151_L1_V1_scrambled_freeview_isoFalse_fps60.mp4,4.210000000000008,None,0,17,17,17,,,,,215.17635619995417,219.6530761999893,219.6530761999893,222.7780029999558,222.7780029999558,['1'],[1.4318741000024602],,,,,subject_18,2,2023-10-06_16h42.10.249,run_1,2023.1.2,59.82421251864914,
2,183.78,veridical,fps_60/1159508.bmp_pp151_L1_V1_veridical_freeview_isoFalse_fps60.mp4,4.6200000000000045,None,0,18,18,18,,,,,225.79281239997363,230.66800839995267,230.66800839995267,233.79276809998555,233.79276809998555,['1'],[1.6002102000056766],236.7928067999892,236.7928067999892,,,subject_18,2,2023-10-06_16h42.10.249,run_1,2023.1.2,59.82421251864914,
2,191.81,scrambled,fps_60/498396.bmp_pp152_L2_V1_scrambled_freeview_isoFalse_fps60.mp4,2.030000000000001,None,0,19,19,19,,,,,236.7928067999892,239.07138659997145,239.07138659997145,242.16810979996808,242.16810979996808,['2'],[0.5419648999813944],245.17642219999107,245.17642219999107,,,subject_18,2,2023-10-06_16h42.10.249,run_1,2023.1.2,59.82421251864914,
,,,,,,,,,,,,,,,,,,,,,,,245.17642219999107,255.17628590000095,,,,,,,
