run,start_time,type,moviestim,jitters,frames,trials.thisRepN,trials.thisTrialN,trials.thisN,trials.thisIndex,fix1.started,welcome_key.started,welcome_key.keys,welcome_key.rt,fix3.started,fix3.stopped,movie.started,text_15.started,key_resp_9.started,key_resp_9.keys,key_resp_9.rt,text_15.stopped,key_resp_9.stopped,fix4.started,participant,session,date,expName,psychopyVersion,frameRate,
,,,,,,,,,,331.70908960001543,331.70908960001543,['equal'],[107.81831450003665],,,,,,,,,,,sub_1,1,2023-08-18_11h57.15.995,run_1,2023.1.2,59.979906731861526,
1,10.0,scrambled,fps_60/1592044.bmp_pp90_L2_V1_scrambled_freeview_isoFalse_fps60.mp4,10.0,None,0,0,0,0,,,,,439.5510106999427,449.90381649998017,449.90381649998017,453.00565359997563,453.00565359997563,['1'],[1.803242600057274],,,,sub_1,1,2023-08-18_11h57.15.995,run_1,2023.1.2,59.979906731861526,
1,19.68,scrambled,fps_60/1592094.bmp_pp89_L1_V1_scrambled_freeview_isoFalse_fps60.mp4,3.68,None,0,1,1,1,,,,,456.01709129998926,460.12192019994836,460.12192019994836,463.1941224000184,463.1941224000184,['2'],[0.4300133999204263],,,,sub_1,1,2023-08-18_11h57.15.995,run_1,2023.1.2,59.979906731861526,
1,29.81,veridical,fps_60/713142.bmp_pp54_L2_V1_veridical_freeview_isoFalse_fps60.mp4,4.129999999999999,None,0,2,2,2,,,,,466.2097963000415,470.7897165999748,470.7897165999748,473.8768991000252,473.8768991000252,['1'],[0.6889872000319883],476.87770119996276,476.87770119996276,,sub_1,1,2023-08-18_11h57.15.995,run_1,2023.1.2,59.979906731861526,
1,39.08,veridical,fps_60/1159515.bmp_pp80_L3_V1_veridical_freeview_isoFalse_fps60.mp4,3.27,None,0,3,3,3,,,,,476.87770119996276,480.5476903000381,480.5476903000381,483.64797739998903,483.64797739998903,['2'],[1.3034988000290468],,,,sub_1,1,2023-08-18_11h57.15.995,run_1,2023.1.2,59.979906731861526,
1,48.0,scrambled,fps_60/713142.bmp_pp54_L2_V1_scrambled_freeview_isoFalse_fps60.mp4,2.9200000000000017,None,0,4,4,4,,,,,486.6641698000021,489.96401410002727,489.96401410002727,493.06407970003784,493.06407970003784,['2'],[0.6171939000487328],496.0729732000036,496.0729732000036,,sub_1,1,2023-08-18_11h57.15.995,run_1,2023.1.2,59.979906731861526,
1,56.3,scrambled,fps_60/713330.bmp_pp51_L1_V1_scrambled_freeview_isoFalse_fps60.mp4,2.299999999999997,None,0,5,5,5,,,,,496.0729732000036,498.7762372000143,498.7762372000143,501.88289260002784,501.88289260002784,['2'],[0.7377657999750227],504.89116460003424,504.89116460003424,,sub_1,1,2023-08-18_11h57.15.995,run_1,2023.1.2,59.979906731861526,
1,66.73,veridical,fps_60/1592044.bmp_pp90_L2_V1_veridical_freeview_isoFalse_fps60.mp4,4.430000000000007,None,0,6,6,6,,,,,504.89116460003424,509.76862139999866,509.76862139999866,512.8581128000515,512.8581128000515,['1'],[0.9918877000454813],515.8675894000335,515.8675894000335,,sub_1,1,2023-08-18_11h57.15.995,run_1,2023.1.2,59.979906731861526,
1,75.4,scrambled,fps_60/1159515.bmp_pp80_L3_V1_scrambled_freeview_isoFalse_fps60.mp4,2.6700000000000017,None,0,7,7,7,,,,,515.8675894000335,518.9594109000172,518.9594109000172,522.0628328999737,522.0628328999737,['2'],[1.61713809997309],525.0675078999484,525.0675078999484,,sub_1,1,2023-08-18_11h57.15.995,run_1,2023.1.2,59.979906731861526,
1,84.36,scrambled,fps_60/1160247.bmp_pp99_L2_V1_scrambled_freeview_isoFalse_fps60.mp4,2.9599999999999937,None,0,8,8,8,,,,,525.0675078999484,528.4325847999426,528.4325847999426,531.5316354000242,531.5316354000242,['1'],[1.006065099965781],534.5362412999384,534.5362412999384,,sub_1,1,2023-08-18_11h57.15.995,run_1,2023.1.2,59.979906731861526,
1,93.97,veridical,fps_60/713807.bmp_pp152_L2_V1_veridical_freeview_isoFalse_fps60.mp4,3.61,None,0,9,9,9,,,,,534.5362412999384,538.5660249999491,538.5660249999491,541.6595671999967,541.6595671999967,['1'],[0.9269369998946786],544.6639823999722,544.6639823999722,,sub_1,1,2023-08-18_11h57.15.995,run_1,2023.1.2,59.979906731861526,
1,103.09,veridical,fps_60/1592094.bmp_pp89_L1_V1_veridical_freeview_isoFalse_fps60.mp4,3.1200000000000045,None,0,10,10,10,,,,,544.6639823999722,548.1501289999578,548.1501289999578,551.2559643000131,551.2559643000131,['1'],[1.4845221999567002],554.2627791999839,554.2627791999839,,sub_1,1,2023-08-18_11h57.15.995,run_1,2023.1.2,59.979906731861526,
1,112.07,scrambled,fps_60/713807.bmp_pp152_L2_V1_scrambled_freeview_isoFalse_fps60.mp4,2.9799999999999898,None,0,11,11,11,,,,,554.2627791999839,557.6586425999412,557.6586425999412,560.77328329999,560.77328329999,['2'],[0.8505032999673858],563.779738400015,563.779738400015,,sub_1,1,2023-08-18_11h57.15.995,run_1,2023.1.2,59.979906731861526,
1,122.94,veridical,fps_60/1592836.bmp_pp64_L1_V1_veridical_freeview_isoFalse_fps60.mp4,4.8700000000000045,None,0,12,12,12,,,,,563.779738400015,569.0933929999592,569.0933929999592,572.1826169999549,572.1826169999549,['1'],[0.7727827000198886],575.1880094000371,575.1880094000371,,sub_1,1,2023-08-18_11h57.15.995,run_1,2023.1.2,59.979906731861526,
1,131.58,veridical,fps_60/1592254.bmp_pp82_L2_V1_veridical_freeview_isoFalse_fps60.mp4,2.640000000000015,None,0,13,13,13,,,,,575.1880094000371,578.2358149000211,578.2358149000211,581.3687929000007,581.3687929000007,['2'],[1.3796428999630734],584.3708586000139,584.3708586000139,,sub_1,1,2023-08-18_11h57.15.995,run_1,2023.1.2,59.979906731861526,
1,143.68,veridical,fps_60/713330.bmp_pp51_L1_V1_veridical_freeview_isoFalse_fps60.mp4,6.099999999999994,None,0,14,14,14,,,,,584.3708586000139,590.9142732999753,590.9142732999753,593.987902599969,593.987902599969,['1'],[0.8546694000251591],596.990034300019,596.990034300019,,sub_1,1,2023-08-18_11h57.15.995,run_1,2023.1.2,59.979906731861526,
1,152.71,scrambled,fps_60/498155.bmp_pp99_L2_V1_scrambled_freeview_isoFalse_fps60.mp4,3.030000000000001,None,0,15,15,15,,,,,596.990034300019,600.432803099975,600.432803099975,603.532378599979,603.532378599979,['2'],[0.9709877000423148],,,,sub_1,1,2023-08-18_11h57.15.995,run_1,2023.1.2,59.979906731861526,
1,162.9,veridical,fps_60/1160247.bmp_pp99_L2_V1_veridical_freeview_isoFalse_fps60.mp4,4.189999999999998,None,0,16,16,16,,,,,606.5457927000243,611.1085540000349,611.1085540000349,614.1828820999945,614.1828820999945,['1'],[1.8574076000368223],617.1833233999787,617.1833233999787,,sub_1,1,2023-08-18_11h57.15.995,run_1,2023.1.2,59.979906731861526,
1,171.48,veridical,fps_60/498155.bmp_pp99_L2_V1_veridical_freeview_isoFalse_fps60.mp4,2.579999999999984,None,0,17,17,17,,,,,617.1833233999787,620.1827987999422,620.1827987999422,623.245836099959,623.245836099959,['1'],[1.075881400029175],,,,sub_1,1,2023-08-18_11h57.15.995,run_1,2023.1.2,59.979906731861526,
1,180.29,scrambled,fps_60/1592254.bmp_pp82_L2_V1_scrambled_freeview_isoFalse_fps60.mp4,2.8100000000000023,None,0,18,18,18,,,,,626.2572770999977,629.4153547999449,629.4153547999449,632.533711600001,632.533711600001,['2'],[0.6751152999931946],635.5335416999878,635.5335416999878,,sub_1,1,2023-08-18_11h57.15.995,run_1,2023.1.2,59.979906731861526,
1,189.35,scrambled,fps_60/1592836.bmp_pp64_L1_V1_scrambled_freeview_isoFalse_fps60.mp4,3.0600000000000023,None,0,19,19,19,,,,,635.5335416999878,638.9589980000164,638.9589980000164,642.0818631999427,642.0818631999427,['2'],[0.7214990000938997],,,,sub_1,1,2023-08-18_11h57.15.995,run_1,2023.1.2,59.979906731861526,
,,,,,,,,,,,,,,,,,,,,,,,645.095532599953,,,,,,,
