run,start_time,type,moviestim,jitters,frames,trials.thisRepN,trials.thisTrialN,trials.thisN,trials.thisIndex,fix1.started,welcome_key.started,welcome_key.keys,welcome_key.rt,fix3.started,fix3.stopped,movie.started,text_15.started,key_resp_9.started,key_resp_9.keys,key_resp_9.rt,text_15.stopped,key_resp_9.stopped,fix4.started,fix4.stopped,participant,session,date,expName,psychopyVersion,frameRate,
,,,,,,,,,,15.673966099973768,15.673966099973768,['equal'],[18.49462070001755],,,,,,,,,,,,sub_1,3,2023-08-18_12h07.44.877,run_1,2023.1.2,59.956243921078084,
3,10.0,veridical,fps_60/285948.bmp_pp64_L1_V1_veridical_freeview_isoFalse_fps60.mp4,10.0,None,0,0,0,0,,,,,34.19146180001553,44.57079120003618,44.57079120003618,47.64819219999481,47.64819219999481,['1'],[0.8699138999218121],,,,,sub_1,3,2023-08-18_12h07.44.877,run_1,2023.1.2,59.956243921078084,
3,18.94,veridical,fps_60/713285.bmp_pp53_L2_V1_veridical_freeview_isoFalse_fps60.mp4,2.9400000000000013,None,0,1,1,1,,,,,50.66311510000378,53.9874465999892,53.9874465999892,57.10695609997492,57.10695609997492,['1'],[0.783763200044632],60.11175699997693,60.11175699997693,,,sub_1,3,2023-08-18_12h07.44.877,run_1,2023.1.2,59.956243921078084,
3,27.57,veridical,fps_60/1592530.bmp_pp75_L1_V1_veridical_freeview_isoFalse_fps60.mp4,2.629999999999999,None,0,2,2,2,,,,,60.11175699997693,63.18564919999335,63.18564919999335,66.3051162000047,66.3051162000047,['1'],[0.5212553000310436],69.30730250000488,69.30730250000488,,,sub_1,3,2023-08-18_12h07.44.877,run_1,2023.1.2,59.956243921078084,
3,37.25,scrambled,fps_60/1593056.bmp_pp93_L1_V1_scrambled_freeview_isoFalse_fps60.mp4,3.68,None,0,3,3,3,,,,,69.30730250000488,73.42739229998551,73.42739229998551,76.51981269998942,76.51981269998942,['2'],[0.7420873999362811],79.52572090004105,79.52572090004105,,,sub_1,3,2023-08-18_12h07.44.877,run_1,2023.1.2,59.956243921078084,
3,45.98,scrambled,fps_60/713285.bmp_pp53_L2_V1_scrambled_freeview_isoFalse_fps60.mp4,2.729999999999997,None,0,4,4,4,,,,,79.52572090004105,82.6861699000001,82.6861699000001,85.78825069998857,85.78825069998857,['2'],[1.3352349000051618],88.79599280003458,88.79599280003458,,,sub_1,3,2023-08-18_12h07.44.877,run_1,2023.1.2,59.956243921078084,
3,55.35,veridical,fps_60/713017.bmp_pp82_L2_V1_veridical_freeview_isoFalse_fps60.mp4,3.3700000000000045,None,0,5,5,5,,,,,88.79599280003458,92.5952091999352,92.5952091999352,95.69811829994433,95.69811829994433,['1'],[0.6994434000225738],,,,,sub_1,3,2023-08-18_12h07.44.877,run_1,2023.1.2,59.956243921078084,
3,67.86,scrambled,fps_60/1592530.bmp_pp75_L1_V1_scrambled_freeview_isoFalse_fps60.mp4,6.509999999999998,None,0,6,6,6,,,,,98.71245889994316,105.68924239999615,105.68924239999615,108.75728549994528,108.75728549994528,['1'],[1.1851298999972641],111.75907899998128,111.75907899998128,,,sub_1,3,2023-08-18_12h07.44.877,run_1,2023.1.2,59.956243921078084,
3,77.55,scrambled,fps_60/1159870.bmp_pp69_L3_V1_scrambled_freeview_isoFalse_fps60.mp4,3.6899999999999977,None,0,7,7,7,,,,,111.75907899998128,115.89492430002429,115.89492430002429,118.95227819995489,118.95227819995489,['2'],[0.6321745000313967],,,,,sub_1,3,2023-08-18_12h07.44.877,run_1,2023.1.2,59.956243921078084,
3,85.78,scrambled,fps_60/713017.bmp_pp82_L2_V1_scrambled_freeview_isoFalse_fps60.mp4,2.230000000000004,None,0,8,8,8,,,,,121.9656915999949,124.5933212999953,124.5933212999953,127.67405569995753,127.67405569995753,['2'],[0.8274402000242844],130.67795149993617,130.67795149993617,,,sub_1,3,2023-08-18_12h07.44.877,run_1,2023.1.2,59.956243921078084,
3,98.48,veridical,fps_60/1160227.bmp_pp94_L2_V1_veridical_freeview_isoFalse_fps60.mp4,6.700000000000003,None,0,9,9,9,,,,,130.67795149993617,137.84367349999957,137.84367349999957,140.9503121000016,140.9503121000016,['1'],[1.0939463999820873],143.952249999973,143.952249999973,,,sub_1,3,2023-08-18_12h07.44.877,run_1,2023.1.2,59.956243921078084,
3,108.18,veridical,fps_60/1159870.bmp_pp69_L3_V1_veridical_freeview_isoFalse_fps60.mp4,3.700000000000003,None,0,10,10,10,,,,,143.952249999973,148.07884550001472,148.07884550001472,151.14595879998524,151.14595879998524,['1'],[1.0515067999949679],154.14989859994967,154.14989859994967,,,sub_1,3,2023-08-18_12h07.44.877,run_1,2023.1.2,59.956243921078084,
3,116.6,veridical,fps_60/1593056.bmp_pp93_L1_V1_veridical_freeview_isoFalse_fps60.mp4,2.4199999999999875,None,0,11,11,11,,,,,154.14989859994967,156.9969503999455,156.9969503999455,160.12894189998042,160.12894189998042,None,,163.12892789999023,163.12892789999023,,,sub_1,3,2023-08-18_12h07.44.877,run_1,2023.1.2,59.956243921078084,
3,124.9,veridical,fps_60/1159325.bmp_pp67_L2_V1_veridical_freeview_isoFalse_fps60.mp4,2.300000000000012,None,0,12,12,12,,,,,163.12892789999023,165.84007879998535,165.84007879998535,168.92885869997554,168.92885869997554,['1'],[0.79724260000512],171.92966299992986,171.92966299992986,,,sub_1,3,2023-08-18_12h07.44.877,run_1,2023.1.2,59.956243921078084,
3,135.79,scrambled,fps_60/713135.bmp_pp94_L2_V1_scrambled_freeview_isoFalse_fps60.mp4,4.889999999999986,None,0,13,13,13,,,,,171.92966299992986,177.2373460000381,177.2373460000381,180.3041469999589,180.3041469999589,['2'],[0.4860558999935165],183.3139964999864,183.3139964999864,,,sub_1,3,2023-08-18_12h07.44.877,run_1,2023.1.2,59.956243921078084,
3,146.12,scrambled,fps_60/1159325.bmp_pp67_L2_V1_scrambled_freeview_isoFalse_fps60.mp4,4.3300000000000125,None,0,14,14,14,,,,,183.3139964999864,188.0159884999739,188.0159884999739,191.0699243999552,191.0699243999552,['2'],[0.7230890999780968],194.07412629993632,194.07412629993632,,,sub_1,3,2023-08-18_12h07.44.877,run_1,2023.1.2,59.956243921078084,
3,155.36,veridical,fps_60/1160049.bmp_pp79_L2_V1_veridical_freeview_isoFalse_fps60.mp4,3.240000000000009,None,0,15,15,15,,,,,194.07412629993632,197.74421439995058,197.74421439995058,200.85989630001131,200.85989630001131,['1'],[1.0719195998972282],203.8613267999608,203.8613267999608,,,sub_1,3,2023-08-18_12h07.44.877,run_1,2023.1.2,59.956243921078084,
3,166.31,veridical,fps_60/713135.bmp_pp94_L2_V1_veridical_freeview_isoFalse_fps60.mp4,4.949999999999989,None,0,16,16,16,,,,,203.8613267999608,209.26411410002038,209.26411410002038,212.3496686000144,212.3496686000144,['1'],[1.105568700004369],215.3606201999355,215.3606201999355,,,sub_1,3,2023-08-18_12h07.44.877,run_1,2023.1.2,59.956243921078084,
3,174.33,scrambled,fps_60/1160049.bmp_pp79_L2_V1_scrambled_freeview_isoFalse_fps60.mp4,2.0200000000000102,None,0,17,17,17,,,,,215.3606201999355,217.76216429995839,217.76216429995839,220.86611569998786,220.86611569998786,['1'],[0.6820833999663591],223.87541889993008,223.87541889993008,,,sub_1,3,2023-08-18_12h07.44.877,run_1,2023.1.2,59.956243921078084,
3,183.48,scrambled,fps_60/1160227.bmp_pp94_L2_V1_scrambled_freeview_isoFalse_fps60.mp4,3.1499999999999773,None,0,18,18,18,,,,,223.87541889993008,227.39332909998484,227.39332909998484,230.53092159994412,230.53092159994412,['2'],[0.8651511000934988],233.53069039992988,233.53069039992988,,,sub_1,3,2023-08-18_12h07.44.877,run_1,2023.1.2,59.956243921078084,
3,191.98,scrambled,fps_60/285948.bmp_pp64_L1_V1_scrambled_freeview_isoFalse_fps60.mp4,2.5,None,0,19,19,19,,,,,233.53069039992988,236.4171980000101,236.4171980000101,239.5328193999594,239.5328193999594,['2'],[1.2887978999642655],242.54208709998056,242.54208709998056,,,sub_1,3,2023-08-18_12h07.44.877,run_1,2023.1.2,59.956243921078084,
,,,,,,,,,,,,,,,,,,,,,,,242.54208709998056,252.54216399998404,,,,,,,
