run,start_time,type,moviestim,jitters,frames,trials.thisRepN,trials.thisTrialN,trials.thisN,trials.thisIndex,fix1.started,welcome_key.started,welcome_key.keys,welcome_key.rt,fix3.started,fix3.stopped,movie.started,text_15.started,key_resp_9.started,text_15.stopped,key_resp_9.stopped,key_resp_9.keys,key_resp_9.rt,fix4.started,participant,session,date,expName,psychopyVersion,frameRate,
,,,,,,,,,,13.596238900000117,13.596238900000117,['equal'],[14.59012709999979],,,,,,,,,,,subject_21,6,2023-11-03_16h09.23.493,run_1,2023.1.2,60.087270752030314,
6,10.0,veridical,fps_60/1159329.bmp_pp95_L2_V1_veridical_freeview_isoFalse_fps60.mp4,10.0,None,0,0,0,0,,,,,28.20311750000019,38.36842770000021,38.36842770000021,41.47973929999989,41.47973929999989,44.486225300000115,44.486225300000115,['1'],[0.5402435999999398],,subject_21,6,2023-11-03_16h09.23.493,run_1,2023.1.2,60.087270752030314,
6,21.84,scrambled,fps_60/713274.bmp_pp91_L3_V1_scrambled_freeview_isoFalse_fps60.mp4,5.84,None,0,1,1,1,,,,,44.486225300000115,50.59823490000008,50.59823490000008,53.69210460000022,53.69210460000022,56.70324399999981,56.70324399999981,['2'],[0.4614105999999083],,subject_21,6,2023-11-03_16h09.23.493,run_1,2023.1.2,60.087270752030314,
6,29.93,veridical,fps_60/1159813.bmp_pp88_L2_V1_veridical_freeview_isoFalse_fps60.mp4,2.09,None,0,2,2,2,,,,,56.70324399999981,59.03082889999996,59.03082889999996,62.14283660000001,62.14283660000001,65.15289140000004,65.15289140000004,['1'],[2.343924999999672],,subject_21,6,2023-11-03_16h09.23.493,run_1,2023.1.2,60.087270752030314,
6,43.81,scrambled,fps_60/1592747.bmp_pp54_L2_V1_scrambled_freeview_isoFalse_fps60.mp4,7.880000000000003,None,0,3,3,3,,,,,65.15289140000004,73.29938459999994,73.29938459999994,76.40756109999984,76.40756109999984,79.4195193999999,79.4195193999999,['1'],[1.6290796000002956],,subject_21,6,2023-11-03_16h09.23.493,run_1,2023.1.2,60.087270752030314,
6,52.41,veridical,fps_60/1591977.bmp_pp58_L1_V1_veridical_freeview_isoFalse_fps60.mp4,2.5999999999999943,None,0,4,4,4,,,,,79.4195193999999,82.2578567999999,82.2578567999999,85.40512510000008,85.40512510000008,,,['2'],[1.3146303999997144],,subject_21,6,2023-11-03_16h09.23.493,run_1,2023.1.2,60.087270752030314,
6,61.04,veridical,fps_60/1160168.bmp_pp54_L2_V1_veridical_freeview_isoFalse_fps60.mp4,2.6300000000000026,None,0,5,5,5,,,,,88.41956110000001,91.2966679000001,91.2966679000001,94.42609579999998,94.42609579999998,97.43626249999988,97.43626249999988,['1'],[1.6104040000000168],,subject_21,6,2023-11-03_16h09.23.493,run_1,2023.1.2,60.087270752030314,
6,69.21,veridical,fps_60/1592303.bmp_pp84_L3_V1_veridical_freeview_isoFalse_fps60.mp4,2.1699999999999946,None,0,6,6,6,,,,,97.43626249999988,99.8552880000002,99.8552880000002,102.9687242,102.9687242,105.96966160000011,105.96966160000011,['1'],[1.4012131999998019],,subject_21,6,2023-11-03_16h09.23.493,run_1,2023.1.2,60.087270752030314,
6,77.65,veridical,fps_60/1592747.bmp_pp54_L2_V1_veridical_freeview_isoFalse_fps60.mp4,2.440000000000012,None,0,7,7,7,,,,,105.96966160000011,108.66853300000002,108.66853300000002,111.79868420000003,111.79868420000003,114.80290640000021,114.80290640000021,['1'],[0.40454090000002907],,subject_21,6,2023-11-03_16h09.23.493,run_1,2023.1.2,60.087270752030314,
6,86.58,veridical,fps_60/1159440.bmp_pp64_L1_V1_veridical_freeview_isoFalse_fps60.mp4,2.9299999999999926,None,0,8,8,8,,,,,114.80290640000021,117.98308420000012,117.98308420000012,121.11273380000011,121.11273380000011,124.11942069999986,124.11942069999986,None,,,subject_21,6,2023-11-03_16h09.23.493,run_1,2023.1.2,60.087270752030314,
6,96.2,scrambled,fps_60/150474.bmp_pp57_L1_V1_scrambled_freeview_isoFalse_fps60.mp4,3.620000000000005,None,0,9,9,9,,,,,124.11942069999986,128.00557419999996,128.00557419999996,131.11511740000014,131.11511740000014,134.11958689999983,134.11958689999983,['1'],[0.6380641000000651],,subject_21,6,2023-11-03_16h09.23.493,run_1,2023.1.2,60.087270752030314,
6,106.26,scrambled,fps_60/1160168.bmp_pp54_L2_V1_scrambled_freeview_isoFalse_fps60.mp4,4.060000000000002,None,0,10,10,10,,,,,134.11958689999983,138.4565846999999,138.4565846999999,141.58399740000004,141.58399740000004,144.58632960000023,144.58632960000023,['1'],[2.502258499999698],,subject_21,6,2023-11-03_16h09.23.493,run_1,2023.1.2,60.087270752030314,
6,115.03,veridical,fps_60/285993.bmp_pp67_L2_V1_veridical_freeview_isoFalse_fps60.mp4,2.769999999999996,None,0,11,11,11,,,,,144.58632960000023,147.59020039999996,147.59020039999996,150.70325890000004,150.70325890000004,153.70278439999993,153.70278439999993,['1'],[1.8496433000000252],,subject_21,6,2023-11-03_16h09.23.493,run_1,2023.1.2,60.087270752030314,
6,129.34,scrambled,fps_60/1592303.bmp_pp84_L3_V1_scrambled_freeview_isoFalse_fps60.mp4,8.310000000000002,None,0,12,12,12,,,,,153.70278439999993,162.28307010000026,162.28307010000026,165.35846889999993,165.35846889999993,168.3696461999998,168.3696461999998,['2'],[0.8615859999999884],,subject_21,6,2023-11-03_16h09.23.493,run_1,2023.1.2,60.087270752030314,
6,137.36,scrambled,fps_60/285993.bmp_pp67_L2_V1_scrambled_freeview_isoFalse_fps60.mp4,2.0200000000000102,None,0,13,13,13,,,,,168.3696461999998,170.62709210000003,170.62709210000003,173.7397764000002,173.7397764000002,,,['1'],[1.4800798999999643],,subject_21,6,2023-11-03_16h09.23.493,run_1,2023.1.2,60.087270752030314,
6,145.43,scrambled,fps_60/1159813.bmp_pp88_L2_V1_scrambled_freeview_isoFalse_fps60.mp4,2.069999999999993,None,0,14,14,14,,,,,176.75298500000008,179.05471239999997,179.05471239999997,182.18421050000006,182.18421050000006,185.18631270000014,185.18631270000014,['1'],[1.7521472000003087],,subject_21,6,2023-11-03_16h09.23.493,run_1,2023.1.2,60.087270752030314,
6,155.23,scrambled,fps_60/1591977.bmp_pp58_L1_V1_scrambled_freeview_isoFalse_fps60.mp4,3.799999999999983,None,0,15,15,15,,,,,185.18631270000014,189.26185170000008,189.26185170000008,192.38952139999992,192.38952139999992,,,['1'],[1.3634514000000308],,subject_21,6,2023-11-03_16h09.23.493,run_1,2023.1.2,60.087270752030314,
6,165.81,scrambled,fps_60/1159329.bmp_pp95_L2_V1_scrambled_freeview_isoFalse_fps60.mp4,4.5800000000000125,None,0,16,16,16,,,,,195.40285399999993,200.24241680000023,200.24241680000023,203.35295610000003,203.35295610000003,206.35253019999982,206.35253019999982,['2'],[1.9669205000000147],,subject_21,6,2023-11-03_16h09.23.493,run_1,2023.1.2,60.087270752030314,
6,174.16,veridical,fps_60/150474.bmp_pp57_L1_V1_veridical_freeview_isoFalse_fps60.mp4,2.3499999999999943,None,0,17,17,17,,,,,206.35253019999982,208.9465607000002,208.9465607000002,212.0592830999999,212.0592830999999,215.06904570000006,215.06904570000006,['1'],[0.8104718999998113],,subject_21,6,2023-11-03_16h09.23.493,run_1,2023.1.2,60.087270752030314,
6,183.28,scrambled,fps_60/1159440.bmp_pp64_L1_V1_scrambled_freeview_isoFalse_fps60.mp4,3.1200000000000045,None,0,18,18,18,,,,,215.06904570000006,218.41788110000016,218.41788110000016,221.5475621999999,221.5475621999999,224.55267700000013,224.55267700000013,['1'],[1.0724104000000807],,subject_21,6,2023-11-03_16h09.23.493,run_1,2023.1.2,60.087270752030314,
6,191.93,veridical,fps_60/713274.bmp_pp91_L3_V1_veridical_freeview_isoFalse_fps60.mp4,2.6500000000000057,None,0,19,19,19,,,,,224.55267700000013,227.42368750000014,227.42368750000014,230.5378314999998,230.5378314999998,,,None,,,subject_21,6,2023-11-03_16h09.23.493,run_1,2023.1.2,60.087270752030314,
,,,,,,,,,,,,,,,,,,,,,,,233.55287580000004,,,,,,,
