run,start_time,type,moviestim,jitters,frames,trials.thisRepN,trials.thisTrialN,trials.thisN,trials.thisIndex,fix1.started,welcome_key.started,welcome_key.keys,welcome_key.rt,fix3.started,fix3.stopped,movie.started,text_15.started,key_resp_9.started,text_15.stopped,key_resp_9.stopped,key_resp_9.keys,key_resp_9.rt,fix4.started,fix4.stopped,participant,session,date,expName,psychopyVersion,frameRate,
,,,,,,,,,,15.226949400035664,15.226949400035664,['equal'],[16.328446000115946],,,,,,,,,,,,subject_9,3,2023-08-31_14h55.17.069,run_1,2023.1.2,60.15511597267062,
3,10.0,veridical,fps_60/285948.bmp_pp64_L1_V1_veridical_freeview_isoFalse_fps60.mp4,10.0,None,0,0,0,0,,,,,31.5719866999425,41.90476689999923,41.90476689999923,44.98946650000289,44.98946650000289,47.99700660002418,47.99700660002418,['1'],[0.7226654998958111],,,subject_9,3,2023-08-31_14h55.17.069,run_1,2023.1.2,60.15511597267062,
3,18.94,veridical,fps_60/713285.bmp_pp53_L2_V1_veridical_freeview_isoFalse_fps60.mp4,2.9400000000000013,None,0,1,1,1,,,,,47.99700660002418,51.30617600004189,51.30617600004189,54.429565199883655,54.429565199883655,57.43760979990475,57.43760979990475,['1'],[0.7690776998642832],,,subject_9,3,2023-08-31_14h55.17.069,run_1,2023.1.2,60.15511597267062,
3,27.57,veridical,fps_60/1592530.bmp_pp75_L1_V1_veridical_freeview_isoFalse_fps60.mp4,2.629999999999999,None,0,2,2,2,,,,,57.43760979990475,60.45125639997423,60.45125639997423,63.58016699994914,63.58016699994914,66.59117350005545,66.59117350005545,['1'],[0.6656831000000238],,,subject_9,3,2023-08-31_14h55.17.069,run_1,2023.1.2,60.15511597267062,
3,37.25,scrambled,fps_60/1593056.bmp_pp93_L1_V1_scrambled_freeview_isoFalse_fps60.mp4,3.68,None,0,3,3,3,,,,,66.59117350005545,70.70454429998063,70.70454429998063,73.8009555998724,73.8009555998724,76.8026266999077,76.8026266999077,['1'],[0.4337593999225646],,,subject_9,3,2023-08-31_14h55.17.069,run_1,2023.1.2,60.15511597267062,
3,45.98,scrambled,fps_60/713285.bmp_pp53_L2_V1_scrambled_freeview_isoFalse_fps60.mp4,2.729999999999997,None,0,4,4,4,,,,,76.8026266999077,79.90930239995942,79.90930239995942,83.01458279998042,83.01458279998042,86.02185110002756,86.02185110002756,['2'],[0.4686141998972744],,,subject_9,3,2023-08-31_14h55.17.069,run_1,2023.1.2,60.15511597267062,
3,55.35,veridical,fps_60/713017.bmp_pp82_L2_V1_veridical_freeview_isoFalse_fps60.mp4,3.3700000000000045,None,0,5,5,5,,,,,86.02185110002756,89.78659179992974,89.78659179992974,92.88664159993641,92.88664159993641,95.89805419999175,95.89805419999175,['1'],[1.5104698999784887],,,subject_9,3,2023-08-31_14h55.17.069,run_1,2023.1.2,60.15511597267062,
3,67.86,scrambled,fps_60/1592530.bmp_pp75_L1_V1_scrambled_freeview_isoFalse_fps60.mp4,6.509999999999998,None,0,6,6,6,,,,,95.89805419999175,102.80599420005456,102.80599420005456,105.89485700009391,105.89485700009391,108.9039845999796,108.9039845999796,['1'],[2.0178268998861313],,,subject_9,3,2023-08-31_14h55.17.069,run_1,2023.1.2,60.15511597267062,
3,77.55,scrambled,fps_60/1159870.bmp_pp69_L3_V1_scrambled_freeview_isoFalse_fps60.mp4,3.6899999999999977,None,0,7,7,7,,,,,108.9039845999796,112.98474280000664,112.98474280000664,116.0582071999088,116.0582071999088,,,['1'],[1.2134451000019908],,,subject_9,3,2023-08-31_14h55.17.069,run_1,2023.1.2,60.15511597267062,
3,85.78,scrambled,fps_60/713017.bmp_pp82_L2_V1_scrambled_freeview_isoFalse_fps60.mp4,2.230000000000004,None,0,8,8,8,,,,,119.07239559991285,121.68962499988265,121.68962499988265,124.77677390002646,124.77677390002646,127.78750879992731,127.78750879992731,['2'],[2.49438549997285],,,subject_9,3,2023-08-31_14h55.17.069,run_1,2023.1.2,60.15511597267062,
3,98.48,veridical,fps_60/1160227.bmp_pp94_L2_V1_veridical_freeview_isoFalse_fps60.mp4,6.700000000000003,None,0,9,9,9,,,,,127.78750879992731,134.90708320005797,134.90708320005797,138.00873759994283,138.00873759994283,,,['1'],[0.9127319999970496],,,subject_9,3,2023-08-31_14h55.17.069,run_1,2023.1.2,60.15511597267062,
3,108.18,veridical,fps_60/1159870.bmp_pp69_L3_V1_veridical_freeview_isoFalse_fps60.mp4,3.700000000000003,None,0,10,10,10,,,,,141.02066849987023,145.1465072000865,145.1465072000865,148.19818420009688,148.19818420009688,151.2042163000442,151.2042163000442,['1'],[0.6782907999586314],,,subject_9,3,2023-08-31_14h55.17.069,run_1,2023.1.2,60.15511597267062,
3,116.6,veridical,fps_60/1593056.bmp_pp93_L1_V1_veridical_freeview_isoFalse_fps60.mp4,2.4199999999999875,None,0,11,11,11,,,,,151.2042163000442,154.01888970006257,154.01888970006257,157.1569284000434,157.1569284000434,160.16089689987712,160.16089689987712,['1'],[0.7044899000320584],,,subject_9,3,2023-08-31_14h55.17.069,run_1,2023.1.2,60.15511597267062,
3,124.9,veridical,fps_60/1159325.bmp_pp67_L2_V1_veridical_freeview_isoFalse_fps60.mp4,2.300000000000012,None,0,12,12,12,,,,,160.16089689987712,162.85111190006137,162.85111190006137,165.95773910009302,165.95773910009302,168.95876639988273,168.95876639988273,['2'],[1.5712677000556141],,,subject_9,3,2023-08-31_14h55.17.069,run_1,2023.1.2,60.15511597267062,
3,135.79,scrambled,fps_60/713135.bmp_pp94_L2_V1_scrambled_freeview_isoFalse_fps60.mp4,4.889999999999986,None,0,13,13,13,,,,,168.95876639988273,174.2850603000261,174.2850603000261,177.36950380005874,177.36950380005874,180.37321750004776,180.37321750004776,['1'],[0.71785519993864],,,subject_9,3,2023-08-31_14h55.17.069,run_1,2023.1.2,60.15511597267062,
3,146.12,scrambled,fps_60/1159325.bmp_pp67_L2_V1_scrambled_freeview_isoFalse_fps60.mp4,4.3300000000000125,None,0,14,14,14,,,,,180.37321750004776,185.1091489000246,185.1091489000246,188.1923008998856,188.1923008998856,191.192641899921,191.192641899921,['2'],[2.31767710018903],,,subject_9,3,2023-08-31_14h55.17.069,run_1,2023.1.2,60.15511597267062,
3,155.36,veridical,fps_60/1160049.bmp_pp79_L2_V1_veridical_freeview_isoFalse_fps60.mp4,3.240000000000009,None,0,15,15,15,,,,,191.192641899921,194.84484939998947,194.84484939998947,197.967689699959,197.967689699959,200.97058110008948,200.97058110008948,['1'],[1.6364760999567807],,,subject_9,3,2023-08-31_14h55.17.069,run_1,2023.1.2,60.15511597267062,
3,166.31,veridical,fps_60/713135.bmp_pp94_L2_V1_veridical_freeview_isoFalse_fps60.mp4,4.949999999999989,None,0,16,16,16,,,,,200.97058110008948,206.35384429991245,206.35384429991245,209.4390982000623,209.4390982000623,212.44898190000094,212.44898190000094,['1'],[1.5370090999640524],,,subject_9,3,2023-08-31_14h55.17.069,run_1,2023.1.2,60.15511597267062,
3,174.33,scrambled,fps_60/1160049.bmp_pp79_L2_V1_scrambled_freeview_isoFalse_fps60.mp4,2.0200000000000102,None,0,17,17,17,,,,,212.44898190000094,214.84223699988797,214.84223699988797,217.96644959994592,217.96644959994592,220.9707211998757,220.9707211998757,['2'],[1.177301999880001],,,subject_9,3,2023-08-31_14h55.17.069,run_1,2023.1.2,60.15511597267062,
3,183.48,scrambled,fps_60/1160227.bmp_pp94_L2_V1_scrambled_freeview_isoFalse_fps60.mp4,3.1499999999999773,None,0,18,18,18,,,,,220.9707211998757,224.52363909990527,224.52363909990527,227.65959959989414,227.65959959989414,230.67055430007167,230.67055430007167,['1'],[0.8969912000466138],,,subject_9,3,2023-08-31_14h55.17.069,run_1,2023.1.2,60.15511597267062,
3,191.98,scrambled,fps_60/285948.bmp_pp64_L1_V1_scrambled_freeview_isoFalse_fps60.mp4,2.5,None,0,19,19,19,,,,,230.67055430007167,233.5668597999029,233.5668597999029,236.68404119997285,236.68404119997285,239.6870454000309,239.6870454000309,['1'],[1.1457275999709964],,,subject_9,3,2023-08-31_14h55.17.069,run_1,2023.1.2,60.15511597267062,
,,,,,,,,,,,,,,,,,,,,,,,239.6870454000309,249.68719480000436,,,,,,,
