run,start_time,type,moviestim,jitters,frames,trials.thisRepN,trials.thisTrialN,trials.thisN,trials.thisIndex,fix1.started,welcome_key.started,welcome_key.keys,welcome_key.rt,fix3.started,fix3.stopped,movie.started,text_15.started,key_resp_9.started,text_15.stopped,key_resp_9.stopped,key_resp_9.keys,key_resp_9.rt,fix4.started,fix4.stopped,participant,session,date,expName,psychopyVersion,frameRate,
,,,,,,,,,,21.223100000002887,21.223100000002887,['equal'],[23.289691300000413],,,,,,,,,,,,subject_20b,2,2023-11-02_17h43.53.523,run_1,2023.1.2,60.08987040895388,
2,10.0,scrambled,fps_60/150296.bmp_pp97_L3_V1_scrambled_freeview_isoFalse_fps60.mp4,10.0,None,0,0,0,0,,,,,44.52935250000155,54.697599599996465,54.697599599996465,57.817903299990576,57.817903299990576,60.829320899996674,60.829320899996674,['2'],[0.14479079999728128],,,subject_20b,2,2023-11-02_17h43.53.523,run_1,2023.1.2,60.08987040895388,
2,18.86,veridical,fps_60/713519.bmp_pp84_L3_V1_veridical_freeview_isoFalse_fps60.mp4,2.8599999999999994,None,0,1,1,1,,,,,60.829320899996674,63.94406639999943,63.94406639999943,67.05633140000282,67.05633140000282,70.06251180000254,70.06251180000254,['2'],[0.4231284000125015],,,subject_20b,2,2023-11-02_17h43.53.523,run_1,2023.1.2,60.08987040895388,
2,27.91,scrambled,fps_60/1159819.bmp_pp63_L1_V1_scrambled_freeview_isoFalse_fps60.mp4,3.0500000000000007,None,0,2,2,2,,,,,70.06251180000254,73.38682459999109,73.38682459999109,76.49944030000188,76.49944030000188,,,['1'],[0.5965878999995766],,,subject_20b,2,2023-11-02_17h43.53.523,run_1,2023.1.2,60.08987040895388,
2,37.06,veridical,fps_60/498396.bmp_pp152_L2_V1_veridical_freeview_isoFalse_fps60.mp4,3.150000000000002,None,0,3,3,3,,,,,79.51240569999209,82.89931120000256,82.89931120000256,86.01174919999903,86.01174919999903,89.01255780000065,89.01255780000065,None,,,,subject_20b,2,2023-11-02_17h43.53.523,run_1,2023.1.2,60.08987040895388,
2,45.1,scrambled,fps_60/713707.bmp_pp63_L1_V1_scrambled_freeview_isoFalse_fps60.mp4,2.039999999999999,None,0,4,4,4,,,,,89.01255780000065,91.33152279999922,91.33152279999922,94.44439249999414,94.44439249999414,97.44597919999796,97.44597919999796,['2'],[1.135161500002141],,,subject_20b,2,2023-11-02_17h43.53.523,run_1,2023.1.2,60.08987040895388,
2,54.79,veridical,fps_60/150296.bmp_pp97_L3_V1_veridical_freeview_isoFalse_fps60.mp4,3.6899999999999977,None,0,5,5,5,,,,,97.44597919999796,101.43497370000114,101.43497370000114,104.55977700000221,104.55977700000221,107.5624647999939,107.5624647999939,['1'],[0.6693994000088423],,,subject_20b,2,2023-11-02_17h43.53.523,run_1,2023.1.2,60.08987040895388,
2,70.63,veridical,fps_60/285992.bmp_pp98_L1_V1_veridical_freeview_isoFalse_fps60.mp4,9.839999999999996,None,0,6,6,6,,,,,107.5624647999939,117.68589039999642,117.68589039999642,120.77715100000205,120.77715100000205,123.77915269999357,123.77915269999357,['1'],[0.8190100000065286],,,subject_20b,2,2023-11-02_17h43.53.523,run_1,2023.1.2,60.08987040895388,
2,80.7,scrambled,fps_60/1159508.bmp_pp151_L1_V1_scrambled_freeview_isoFalse_fps60.mp4,4.070000000000007,None,0,7,7,7,,,,,123.77915269999357,128.13783179999155,128.13783179999155,131.26214099999925,131.26214099999925,134.26239459999488,134.26239459999488,['2'],[0.08405900000070687],,,subject_20b,2,2023-11-02_17h43.53.523,run_1,2023.1.2,60.08987040895388,
2,89.59,scrambled,fps_60/713519.bmp_pp84_L3_V1_scrambled_freeview_isoFalse_fps60.mp4,2.890000000000001,None,0,8,8,8,,,,,134.26239459999488,137.41329659998883,137.41329659998883,140.52627580000262,140.52627580000262,143.5293243999913,143.5293243999913,['2'],[0.5863443999987794],,,subject_20b,2,2023-11-02_17h43.53.523,run_1,2023.1.2,60.08987040895388,
2,98.25,veridical,fps_60/713707.bmp_pp63_L1_V1_veridical_freeview_isoFalse_fps60.mp4,2.6599999999999966,None,0,9,9,9,,,,,143.5293243999913,146.454682399999,146.454682399999,149.5664354999899,149.5664354999899,152.5793674000015,152.5793674000015,['1'],[1.6793482000066433],,,subject_20b,2,2023-11-02_17h43.53.523,run_1,2023.1.2,60.08987040895388,
2,108.09,scrambled,fps_60/1592137.bmp_pp58_L1_V1_scrambled_freeview_isoFalse_fps60.mp4,3.8400000000000034,None,0,10,10,10,,,,,152.5793674000015,156.70142060000217,156.70142060000217,159.80929579999065,159.80929579999065,162.81232009999803,162.81232009999803,['2'],[1.119751999998698],,,subject_20b,2,2023-11-02_17h43.53.523,run_1,2023.1.2,60.08987040895388,
2,118.18,veridical,fps_60/1160140.bmp_pp151_L1_V1_veridical_freeview_isoFalse_fps60.mp4,4.090000000000003,None,0,11,11,11,,,,,162.81232009999803,167.18769169998995,167.18769169998995,170.31113970000297,170.31113970000297,173.3125999999902,173.3125999999902,['2'],[2.234947100005229],,,subject_20b,2,2023-11-02_17h43.53.523,run_1,2023.1.2,60.08987040895388,
2,127.51,veridical,fps_60/1592137.bmp_pp58_L1_V1_veridical_freeview_isoFalse_fps60.mp4,3.3299999999999983,None,0,12,12,12,,,,,173.3125999999902,176.90818579999905,176.90818579999905,180.02010309998877,180.02010309998877,183.0289810999966,183.0289810999966,['2'],[0.9425498999917181],,,subject_20b,2,2023-11-02_17h43.53.523,run_1,2023.1.2,60.08987040895388,
2,135.58,scrambled,fps_60/1160171.bmp_pp97_L3_V1_scrambled_freeview_isoFalse_fps60.mp4,2.0700000000000074,None,0,13,13,13,,,,,183.0289810999966,185.35098519999883,185.35098519999883,188.47939320000296,188.47939320000296,191.47888329999114,191.47888329999114,['1'],[0.5663857000035932],,,subject_20b,2,2023-11-02_17h43.53.523,run_1,2023.1.2,60.08987040895388,
2,144.7,veridical,fps_60/1159819.bmp_pp63_L1_V1_veridical_freeview_isoFalse_fps60.mp4,3.119999999999976,None,0,14,14,14,,,,,191.47888329999114,194.86239480000222,194.86239480000222,197.9752787999896,197.9752787999896,200.97885859999224,200.97885859999224,['1'],[0.903583899998921],,,subject_20b,2,2023-11-02_17h43.53.523,run_1,2023.1.2,60.08987040895388,
2,154.49,veridical,fps_60/1160171.bmp_pp97_L3_V1_veridical_freeview_isoFalse_fps60.mp4,3.790000000000021,None,0,15,15,15,,,,,200.97885859999224,205.06730229999812,205.06730229999812,208.17511209999793,208.17511209999793,211.17894279999018,211.17894279999018,['1'],[0.8873097999894526],,,subject_20b,2,2023-11-02_17h43.53.523,run_1,2023.1.2,60.08987040895388,
2,162.95,scrambled,fps_60/285992.bmp_pp98_L1_V1_scrambled_freeview_isoFalse_fps60.mp4,2.4599999999999795,None,0,16,16,16,,,,,211.17894279999018,213.91209569999774,213.91209569999774,217.02448880000156,217.02448880000156,220.02858449998894,220.02858449998894,['1'],[1.45477560001018],,,subject_20b,2,2023-11-02_17h43.53.523,run_1,2023.1.2,60.08987040895388,
2,173.16,scrambled,fps_60/1160140.bmp_pp151_L1_V1_scrambled_freeview_isoFalse_fps60.mp4,4.210000000000008,None,0,17,17,17,,,,,220.02858449998894,224.50765279999177,224.50765279999177,227.63140829998883,227.63140829998883,,,['2'],[1.2814264000044204],,,subject_20b,2,2023-11-02_17h43.53.523,run_1,2023.1.2,60.08987040895388,
2,183.78,veridical,fps_60/1159508.bmp_pp151_L1_V1_veridical_freeview_isoFalse_fps60.mp4,4.6200000000000045,None,0,18,18,18,,,,,230.64552369999,235.53246750000108,235.53246750000108,238.65835009999864,238.65835009999864,241.66235099999176,241.66235099999176,None,,,,subject_20b,2,2023-11-02_17h43.53.523,run_1,2023.1.2,60.08987040895388,
2,191.81,scrambled,fps_60/498396.bmp_pp152_L2_V1_scrambled_freeview_isoFalse_fps60.mp4,2.030000000000001,None,0,19,19,19,,,,,241.66235099999176,243.94932220000192,243.94932220000192,247.06233899999643,247.06233899999643,250.0622366000025,250.0622366000025,['2'],[1.3002661999926204],,,subject_20b,2,2023-11-02_17h43.53.523,run_1,2023.1.2,60.08987040895388,
,,,,,,,,,,,,,,,,,,,,,,,250.0622366000025,260.0617889999994,,,,,,,
