run,start_time,type,moviestim,jitters,frames,trials.thisRepN,trials.thisTrialN,trials.thisN,trials.thisIndex,fix1.started,welcome_key.started,welcome_key.keys,welcome_key.rt,fix3.started,fix3.stopped,movie.started,text_15.started,key_resp_9.started,text_15.stopped,key_resp_9.stopped,key_resp_9.keys,key_resp_9.rt,fix4.started,fix4.stopped,participant,session,date,expName,psychopyVersion,frameRate,
,,,,,,,,,,26.680415900002117,26.680415900002117,['equal'],[17.45675540000957],,,,,,,,,,,,subject_20b,6,2023-11-02_18h03.11.903,run_1,2023.1.2,59.94963032091283,
6,10.0,veridical,fps_60/1159329.bmp_pp95_L2_V1_veridical_freeview_isoFalse_fps60.mp4,10.0,None,0,0,0,0,,,,,44.1537629999948,54.329274299991084,54.329274299991084,57.43008109999937,57.43008109999937,60.43689879999147,60.43689879999147,['1'],[0.5067129000090063],,,subject_20b,6,2023-11-02_18h03.11.903,run_1,2023.1.2,59.94963032091283,
6,21.84,scrambled,fps_60/713274.bmp_pp91_L3_V1_scrambled_freeview_isoFalse_fps60.mp4,5.84,None,0,1,1,1,,,,,60.43689879999147,66.55096900000353,66.55096900000353,69.62614269999904,69.62614269999904,72.63656349999656,72.63656349999656,None,,,,subject_20b,6,2023-11-02_18h03.11.903,run_1,2023.1.2,59.94963032091283,
6,29.93,veridical,fps_60/1159813.bmp_pp88_L2_V1_veridical_freeview_isoFalse_fps60.mp4,2.09,None,0,2,2,2,,,,,72.63656349999656,74.98036849999335,74.98036849999335,78.1091524999938,78.1091524999938,81.12022879999131,81.12022879999131,['1'],[1.727676700000302],,,subject_20b,6,2023-11-02_18h03.11.903,run_1,2023.1.2,59.94963032091283,
6,43.81,scrambled,fps_60/1592747.bmp_pp54_L2_V1_scrambled_freeview_isoFalse_fps60.mp4,7.880000000000003,None,0,3,3,3,,,,,81.12022879999131,89.27483579999534,89.27483579999534,92.3836844000034,92.3836844000034,95.38688209999236,95.38688209999236,None,,,,subject_20b,6,2023-11-02_18h03.11.903,run_1,2023.1.2,59.94963032091283,
6,52.41,veridical,fps_60/1591977.bmp_pp58_L1_V1_veridical_freeview_isoFalse_fps60.mp4,2.5999999999999943,None,0,4,4,4,,,,,95.38688209999236,98.25031299999682,98.25031299999682,101.37831269999151,101.37831269999151,104.38658299999952,104.38658299999952,['1'],[0.7086024000018369],,,subject_20b,6,2023-11-02_18h03.11.903,run_1,2023.1.2,59.94963032091283,
6,61.04,veridical,fps_60/1160168.bmp_pp54_L2_V1_veridical_freeview_isoFalse_fps60.mp4,2.6300000000000026,None,0,5,5,5,,,,,104.38658299999952,107.30179299999145,107.30179299999145,110.42611449999094,110.42611449999094,113.43674079999619,113.43674079999619,['2'],[1.1275607999996282],,,subject_20b,6,2023-11-02_18h03.11.903,run_1,2023.1.2,59.94963032091283,
6,69.21,veridical,fps_60/1592303.bmp_pp84_L3_V1_veridical_freeview_isoFalse_fps60.mp4,2.1699999999999946,None,0,6,6,6,,,,,113.43674079999619,115.86916020000353,115.86916020000353,118.98052080000343,118.98052080000343,121.98669079999672,121.98669079999672,['1'],[1.223089200007962],,,subject_20b,6,2023-11-02_18h03.11.903,run_1,2023.1.2,59.94963032091283,
6,77.65,veridical,fps_60/1592747.bmp_pp54_L2_V1_veridical_freeview_isoFalse_fps60.mp4,2.440000000000012,None,0,7,7,7,,,,,121.98669079999672,124.67713870000443,124.67713870000443,127.8049747999903,127.8049747999903,,,['1'],[1.298550499996054],,,subject_20b,6,2023-11-02_18h03.11.903,run_1,2023.1.2,59.94963032091283,
6,86.58,veridical,fps_60/1159440.bmp_pp64_L1_V1_veridical_freeview_isoFalse_fps60.mp4,2.9299999999999926,None,0,8,8,8,,,,,130.81989339999564,134.00358279999637,134.00358279999637,137.13201529999787,137.13201529999787,140.1369529999938,140.1369529999938,['1'],[1.1882336999988183],,,subject_20b,6,2023-11-02_18h03.11.903,run_1,2023.1.2,59.94963032091283,
6,96.2,scrambled,fps_60/150474.bmp_pp57_L1_V1_scrambled_freeview_isoFalse_fps60.mp4,3.620000000000005,None,0,9,9,9,,,,,140.1369529999938,144.01593549999234,144.01593549999234,147.12631089999923,147.12631089999923,150.13692239999364,150.13692239999364,['1'],[1.0271975000068778],,,subject_20b,6,2023-11-02_18h03.11.903,run_1,2023.1.2,59.94963032091283,
6,106.26,scrambled,fps_60/1160168.bmp_pp54_L2_V1_scrambled_freeview_isoFalse_fps60.mp4,4.060000000000002,None,0,10,10,10,,,,,150.13692239999364,154.46837010000309,154.46837010000309,157.57665989999077,157.57665989999077,160.58675139999832,160.58675139999832,['2'],[1.0604189000005135],,,subject_20b,6,2023-11-02_18h03.11.903,run_1,2023.1.2,59.94963032091283,
6,115.03,veridical,fps_60/285993.bmp_pp67_L2_V1_veridical_freeview_isoFalse_fps60.mp4,2.769999999999996,None,0,11,11,11,,,,,160.58675139999832,163.6191511999932,163.6191511999932,166.73176909999165,166.73176909999165,169.73657880000246,169.73657880000246,['1'],[1.021844199989573],,,subject_20b,6,2023-11-02_18h03.11.903,run_1,2023.1.2,59.94963032091283,
6,129.34,scrambled,fps_60/1592303.bmp_pp84_L3_V1_scrambled_freeview_isoFalse_fps60.mp4,8.310000000000002,None,0,12,12,12,,,,,169.73657880000246,178.32770449999953,178.32770449999953,181.4200822999992,181.4200822999992,184.42035889999534,184.42035889999534,['1'],[1.0005911000043852],,,subject_20b,6,2023-11-02_18h03.11.903,run_1,2023.1.2,59.94963032091283,
6,137.36,scrambled,fps_60/285993.bmp_pp67_L2_V1_scrambled_freeview_isoFalse_fps60.mp4,2.0200000000000102,None,0,13,13,13,,,,,184.42035889999534,186.7047109999985,186.7047109999985,189.8175046999968,189.8175046999968,192.81978649999655,192.81978649999655,['2'],[1.0359673000057228],,,subject_20b,6,2023-11-02_18h03.11.903,run_1,2023.1.2,59.94963032091283,
6,145.43,scrambled,fps_60/1159813.bmp_pp88_L2_V1_scrambled_freeview_isoFalse_fps60.mp4,2.069999999999993,None,0,14,14,14,,,,,192.81978649999655,195.14801029999217,195.14801029999217,198.27626769999915,198.27626769999915,201.28669939999236,201.28669939999236,['1'],[2.0274002000078326],,,subject_20b,6,2023-11-02_18h03.11.903,run_1,2023.1.2,59.94963032091283,
6,155.23,scrambled,fps_60/1591977.bmp_pp58_L1_V1_scrambled_freeview_isoFalse_fps60.mp4,3.799999999999983,None,0,15,15,15,,,,,201.28669939999236,205.38322750000225,205.38322750000225,208.50738559999445,208.50738559999445,211.51991909999924,211.51991909999924,['2'],[0.9461851999949431],,,subject_20b,6,2023-11-02_18h03.11.903,run_1,2023.1.2,59.94963032091283,
6,165.81,scrambled,fps_60/1159329.bmp_pp95_L2_V1_scrambled_freeview_isoFalse_fps60.mp4,4.5800000000000125,None,0,16,16,16,,,,,211.51991909999924,216.37902510000276,216.37902510000276,219.48634770000353,219.48634770000353,222.48685750000004,222.48685750000004,['2'],[0.48402059999352787],,,subject_20b,6,2023-11-02_18h03.11.903,run_1,2023.1.2,59.94963032091283,
6,174.16,veridical,fps_60/150474.bmp_pp57_L1_V1_veridical_freeview_isoFalse_fps60.mp4,2.3499999999999943,None,0,17,17,17,,,,,222.48685750000004,225.10143110000354,225.10143110000354,228.2308170000033,228.2308170000033,231.23651459999382,231.23651459999382,['1'],[0.5727936999901431],,,subject_20b,6,2023-11-02_18h03.11.903,run_1,2023.1.2,59.94963032091283,
6,183.28,scrambled,fps_60/1159440.bmp_pp64_L1_V1_scrambled_freeview_isoFalse_fps60.mp4,3.1200000000000045,None,0,18,18,18,,,,,231.23651459999382,234.60791939999035,234.60791939999035,237.73747979999462,237.73747979999462,240.73663939999824,240.73663939999824,['1'],[1.1160708999959752],,,subject_20b,6,2023-11-02_18h03.11.903,run_1,2023.1.2,59.94963032091283,
6,191.93,veridical,fps_60/713274.bmp_pp91_L3_V1_veridical_freeview_isoFalse_fps60.mp4,2.6500000000000057,None,0,19,19,19,,,,,240.73663939999824,243.6199340000021,243.6199340000021,246.73226049999357,246.73226049999357,249.73681590000342,249.73681590000342,['2'],[0.4378266999992775],,,subject_20b,6,2023-11-02_18h03.11.903,run_1,2023.1.2,59.94963032091283,
,,,,,,,,,,,,,,,,,,,,,,,249.73681590000342,259.7365929999942,,,,,,,
