run,start_time,type,moviestim,jitters,frames,trials.thisRepN,trials.thisTrialN,trials.thisN,trials.thisIndex,fix1.started,welcome_key.started,welcome_key.keys,welcome_key.rt,fix3.started,fix3.stopped,movie.started,text_15.started,key_resp_9.started,text_15.stopped,key_resp_9.stopped,key_resp_9.keys,key_resp_9.rt,fix4.started,participant,session,date,expName,psychopyVersion,frameRate,
,,,,,,,,,,14.594303299905732,14.594303299905732,['equal'],[17.249061499955133],,,,,,,,,,,subject_4c,6,2023-08-24_13h44.10.375,run_1,2023.1.2,60.01666061211096,
6,10.0,veridical,fps_60/1159329.bmp_pp95_L2_V1_veridical_freeview_isoFalse_fps60.mp4,10.0,None,0,0,0,0,,,,,31.85968969995156,42.25070289988071,42.25070289988071,45.33953979983926,45.33953979983926,48.349675399949774,48.349675399949774,['1'],[0.44537780014798045],,subject_4c,6,2023-08-24_13h44.10.375,run_1,2023.1.2,60.01666061211096,
6,21.84,scrambled,fps_60/713274.bmp_pp91_L3_V1_scrambled_freeview_isoFalse_fps60.mp4,5.84,None,0,1,1,1,,,,,48.349675399949774,54.59537700004876,54.59537700004876,57.64946069987491,57.64946069987491,,,['1'],[0.3661343001294881],,subject_4c,6,2023-08-24_13h44.10.375,run_1,2023.1.2,60.01666061211096,
6,29.93,veridical,fps_60/1159813.bmp_pp88_L2_V1_veridical_freeview_isoFalse_fps60.mp4,2.09,None,0,2,2,2,,,,,60.662359699839726,63.108252599835396,63.108252599835396,66.23037540004589,66.23037540004589,,,['1'],[0.8053651999216527],,subject_4c,6,2023-08-24_13h44.10.375,run_1,2023.1.2,60.01666061211096,
6,43.81,scrambled,fps_60/1592747.bmp_pp54_L2_V1_scrambled_freeview_isoFalse_fps60.mp4,7.880000000000003,None,0,3,3,3,,,,,69.24526289990172,77.54213089984842,77.54213089984842,80.62958989990875,80.62958989990875,,,['1'],[1.270758300088346],,subject_4c,6,2023-08-24_13h44.10.375,run_1,2023.1.2,60.01666061211096,
6,52.41,veridical,fps_60/1591977.bmp_pp58_L1_V1_veridical_freeview_isoFalse_fps60.mp4,2.5999999999999943,None,0,4,4,4,,,,,83.64239609986544,86.60239030001685,86.60239030001685,89.73978479998186,89.73978479998186,,,['2'],[1.0199732000473887],,subject_4c,6,2023-08-24_13h44.10.375,run_1,2023.1.2,60.01666061211096,
6,61.04,veridical,fps_60/1160168.bmp_pp54_L2_V1_veridical_freeview_isoFalse_fps60.mp4,2.6300000000000026,None,0,5,5,5,,,,,92.75418879999779,95.80011529987678,95.80011529987678,98.90834009996615,98.90834009996615,101.90871069999412,101.90871069999412,['2'],[0.7179294000379741],,subject_4c,6,2023-08-24_13h44.10.375,run_1,2023.1.2,60.01666061211096,
6,69.21,veridical,fps_60/1592303.bmp_pp84_L3_V1_veridical_freeview_isoFalse_fps60.mp4,2.1699999999999946,None,0,6,6,6,,,,,101.90871069999412,104.44041129993275,104.44041129993275,107.54778809985146,107.54778809985146,,,['1'],[0.5019602999091148],,subject_4c,6,2023-08-24_13h44.10.375,run_1,2023.1.2,60.01666061211096,
6,77.65,veridical,fps_60/1592747.bmp_pp54_L2_V1_veridical_freeview_isoFalse_fps60.mp4,2.440000000000012,None,0,7,7,7,,,,,110.5587628998328,113.37278359988704,113.37278359988704,116.49302769987844,116.49302769987844,119.49198889988475,119.49198889988475,['1'],[0.5163201000541449],,subject_4c,6,2023-08-24_13h44.10.375,run_1,2023.1.2,60.01666061211096,
6,86.58,veridical,fps_60/1159440.bmp_pp64_L1_V1_veridical_freeview_isoFalse_fps60.mp4,2.9299999999999926,None,0,8,8,8,,,,,119.49198889988475,122.84128930000588,122.84128930000588,125.96454459987581,125.96454459987581,,,['1'],[2.3115129999350756],,subject_4c,6,2023-08-24_13h44.10.375,run_1,2023.1.2,60.01666061211096,
6,96.2,scrambled,fps_60/150474.bmp_pp57_L1_V1_scrambled_freeview_isoFalse_fps60.mp4,3.620000000000005,None,0,9,9,9,,,,,128.97530519985594,133.01950130006298,133.01950130006298,136.10632939985953,136.10632939985953,,,['1'],[0.3887697998434305],,subject_4c,6,2023-08-24_13h44.10.375,run_1,2023.1.2,60.01666061211096,
6,106.26,scrambled,fps_60/1160168.bmp_pp54_L2_V1_scrambled_freeview_isoFalse_fps60.mp4,4.060000000000002,None,0,10,10,10,,,,,139.12015790003352,143.61101499991491,143.61101499991491,146.71626579994336,146.71626579994336,149.7205936999526,149.7205936999526,['2'],[1.330353100085631],,subject_4c,6,2023-08-24_13h44.10.375,run_1,2023.1.2,60.01666061211096,
6,115.03,veridical,fps_60/285993.bmp_pp67_L2_V1_veridical_freeview_isoFalse_fps60.mp4,2.769999999999996,None,0,11,11,11,,,,,149.7205936999526,152.90221780003048,152.90221780003048,156.00604430004023,156.00604430004023,,,['1'],[1.3888264999259263],,subject_4c,6,2023-08-24_13h44.10.375,run_1,2023.1.2,60.01666061211096,
6,129.34,scrambled,fps_60/1592303.bmp_pp84_L3_V1_scrambled_freeview_isoFalse_fps60.mp4,8.310000000000002,None,0,12,12,12,,,,,159.0197421000339,167.76851490000263,167.76851490000263,170.81823530001566,170.81823530001566,173.82442869991064,173.82442869991064,['1'],[0.5788270998746157],,subject_4c,6,2023-08-24_13h44.10.375,run_1,2023.1.2,60.01666061211096,
6,137.36,scrambled,fps_60/285993.bmp_pp67_L2_V1_scrambled_freeview_isoFalse_fps60.mp4,2.0200000000000102,None,0,13,13,13,,,,,173.82442869991064,176.2079843999818,176.2079843999818,179.3133181000594,179.3133181000594,,,['1'],[0.6346058999188244],,subject_4c,6,2023-08-24_13h44.10.375,run_1,2023.1.2,60.01666061211096,
6,145.43,scrambled,fps_60/1159813.bmp_pp88_L2_V1_scrambled_freeview_isoFalse_fps60.mp4,2.069999999999993,None,0,14,14,14,,,,,182.32535069994628,184.7327872000169,184.7327872000169,187.83540229988284,187.83540229988284,190.83788220002316,190.83788220002316,['1'],[0.4344094998668879],,subject_4c,6,2023-08-24_13h44.10.375,run_1,2023.1.2,60.01666061211096,
6,155.23,scrambled,fps_60/1591977.bmp_pp58_L1_V1_scrambled_freeview_isoFalse_fps60.mp4,3.799999999999983,None,0,15,15,15,,,,,190.83788220002316,195.04619199992158,195.04619199992158,198.13281029998325,198.13281029998325,201.13614950003102,201.13614950003102,['2'],[0.7220716001465917],,subject_4c,6,2023-08-24_13h44.10.375,run_1,2023.1.2,60.01666061211096,
6,165.81,scrambled,fps_60/1159329.bmp_pp95_L2_V1_scrambled_freeview_isoFalse_fps60.mp4,4.5800000000000125,None,0,16,16,16,,,,,201.13614950003102,206.1488459999673,206.1488459999673,209.21879799989983,209.21879799989983,212.22975050006062,212.22975050006062,['1'],[0.3517733998596668],,subject_4c,6,2023-08-24_13h44.10.375,run_1,2023.1.2,60.01666061211096,
6,174.16,veridical,fps_60/150474.bmp_pp57_L1_V1_veridical_freeview_isoFalse_fps60.mp4,2.3499999999999943,None,0,17,17,17,,,,,212.22975050006062,214.94467670004815,214.94467670004815,218.0687375999987,218.0687375999987,221.07659469987266,221.07659469987266,['1'],[0.5791939001064748],,subject_4c,6,2023-08-24_13h44.10.375,run_1,2023.1.2,60.01666061211096,
6,183.28,scrambled,fps_60/1159440.bmp_pp64_L1_V1_scrambled_freeview_isoFalse_fps60.mp4,3.1200000000000045,None,0,18,18,18,,,,,221.07659469987266,224.55876269983128,224.55876269983128,227.6802980999928,227.6802980999928,,,['2'],[1.1851305000018328],,subject_4c,6,2023-08-24_13h44.10.375,run_1,2023.1.2,60.01666061211096,
6,191.93,veridical,fps_60/713274.bmp_pp91_L3_V1_veridical_freeview_isoFalse_fps60.mp4,2.6500000000000057,None,0,19,19,19,,,,,230.69416780001484,233.64507129997946,233.64507129997946,236.74848369997926,236.74848369997926,239.76078390004113,239.76078390004113,['1'],[0.3503690001089126],,subject_4c,6,2023-08-24_13h44.10.375,run_1,2023.1.2,60.01666061211096,
,,,,,,,,,,,,,,,,,,,,,,,239.76078390004113,,,,,,,
