run,start_time,type,moviestim,jitters,frames,trials.thisRepN,trials.thisTrialN,trials.thisN,trials.thisIndex,fix1.started,welcome_key.started,welcome_key.keys,welcome_key.rt,fix3.started,fix3.stopped,movie.started,text_15.started,key_resp_9.started,text_15.stopped,key_resp_9.stopped,key_resp_9.keys,key_resp_9.rt,fix4.started,fix4.stopped,participant,session,date,expName,psychopyVersion,frameRate,Unnamed: 31,response_type,response_value,unanswered,Unnamed: 30
2.0,10.0,scrambled,fps_60/150296.bmp_pp97_L3_V1_scrambled_freeview_isoFalse_fps60.mp4,10.0,,0.0,0.0,0.0,0.0,,,,,41.88283569994383,52.244076000060886,52.244076000060886,55.35214610002004,55.35214610002004,58.35710099991411,58.35710099991411,['1'],[0.6668479000218213],,,subject_4c,2.0,2023-08-24_13h26.27.274,run_1,2023.1.2,60.00816103232573,,False Alarm,1,,
2.0,18.86,veridical,fps_60/713519.bmp_pp84_L3_V1_veridical_freeview_isoFalse_fps60.mp4,2.8599999999999994,,0.0,1.0,1.0,1.0,,,,,58.35710099991411,61.58106369990856,61.58106369990856,64.6896883000154,64.6896883000154,67.69131899997592,67.69131899997592,['1'],[0.9301497999113053],,,subject_4c,2.0,2023-08-24_13h26.27.274,run_1,2023.1.2,60.00816103232573,,Hit,1,,
2.0,27.91,scrambled,fps_60/1159819.bmp_pp63_L1_V1_scrambled_freeview_isoFalse_fps60.mp4,3.0500000000000007,,0.0,2.0,2.0,2.0,,,,,67.69131899997592,71.10505910008214,71.10505910008214,74.2122357999906,74.2122357999906,77.2126134999562,77.2126134999562,['1'],[2.1773125999607146],,,subject_4c,2.0,2023-08-24_13h26.27.274,run_1,2023.1.2,60.00816103232573,,False Alarm,1,,
2.0,37.06,veridical,fps_60/498396.bmp_pp152_L2_V1_veridical_freeview_isoFalse_fps60.mp4,3.150000000000002,,0.0,3.0,3.0,3.0,,,,,77.2126134999562,80.72416640003212,80.72416640003212,83.83084130007774,83.83084130007774,86.84059579996392,86.84059579996392,['1'],[0.448411000194028],,,subject_4c,2.0,2023-08-24_13h26.27.274,run_1,2023.1.2,60.00816103232573,,Hit,1,,
2.0,45.1,scrambled,fps_60/713707.bmp_pp63_L1_V1_scrambled_freeview_isoFalse_fps60.mp4,2.039999999999999,,0.0,4.0,4.0,4.0,,,,,86.84059579996392,89.25427850009874,89.25427850009874,92.35889629996382,92.35889629996382,,,['2'],[1.6118503999896348],,,subject_4c,2.0,2023-08-24_13h26.27.274,run_1,2023.1.2,60.00816103232573,,Correct Reject,2,,
2.0,54.79,veridical,fps_60/150296.bmp_pp97_L3_V1_veridical_freeview_isoFalse_fps60.mp4,3.6899999999999977,,0.0,5.0,5.0,5.0,,,,,95.3711349000223,99.43097219988704,99.43097219988704,102.53974310006016,102.53974310006016,105.54809499997646,105.54809499997646,['1'],[0.6045561998616904],,,subject_4c,2.0,2023-08-24_13h26.27.274,run_1,2023.1.2,60.00816103232573,,Hit,1,,
2.0,70.63,veridical,fps_60/285992.bmp_pp98_L1_V1_veridical_freeview_isoFalse_fps60.mp4,9.839999999999996,,0.0,6.0,6.0,6.0,,,,,105.54809499997646,115.8316238000989,115.8316238000989,118.90051939990371,118.90051939990371,,,['1'],[0.6978887000586838],,,subject_4c,2.0,2023-08-24_13h26.27.274,run_1,2023.1.2,60.00816103232573,,Hit,1,,
2.0,80.7,scrambled,fps_60/1159508.bmp_pp151_L1_V1_scrambled_freeview_isoFalse_fps60.mp4,4.070000000000007,,0.0,7.0,7.0,7.0,,,,,121.91424449998884,126.40043679997324,126.40043679997324,129.50686160009354,129.50686160009354,132.5170436000917,132.5170436000917,['2'],[1.4070951000321656],,,subject_4c,2.0,2023-08-24_13h26.27.274,run_1,2023.1.2,60.00816103232573,,Correct Reject,2,,
2.0,89.59,scrambled,fps_60/713519.bmp_pp84_L3_V1_scrambled_freeview_isoFalse_fps60.mp4,2.890000000000001,,0.0,8.0,8.0,8.0,,,,,132.5170436000917,135.81601940002292,135.81601940002292,138.9023366998881,138.9023366998881,141.9099071000237,141.9099071000237,,,,,subject_4c,2.0,2023-08-24_13h26.27.274,run_1,2023.1.2,60.00816103232573,,,,,
2.0,98.25,veridical,fps_60/713707.bmp_pp63_L1_V1_veridical_freeview_isoFalse_fps60.mp4,2.6599999999999966,,0.0,9.0,9.0,9.0,,,,,141.9099071000237,144.93881419999525,144.93881419999525,148.04329079994932,148.04329079994932,151.04343710001558,151.04343710001558,['2'],[1.0035371999256313],,,subject_4c,2.0,2023-08-24_13h26.27.274,run_1,2023.1.2,60.00816103232573,,Miss,2,,
2.0,108.09,scrambled,fps_60/1592137.bmp_pp58_L1_V1_scrambled_freeview_isoFalse_fps60.mp4,3.8400000000000034,,0.0,10.0,10.0,10.0,,,,,151.04343710001558,155.30786870000884,155.30786870000884,158.3920271000825,158.3920271000825,161.3935529999435,161.3935529999435,['1'],[0.7644483998883516],,,subject_4c,2.0,2023-08-24_13h26.27.274,run_1,2023.1.2,60.00816103232573,,False Alarm,1,,
2.0,118.18,veridical,fps_60/1160140.bmp_pp151_L1_V1_veridical_freeview_isoFalse_fps60.mp4,4.090000000000003,,0.0,11.0,11.0,11.0,,,,,161.3935529999435,165.9237822999712,165.9237822999712,169.02352320007049,169.02352320007049,172.02706229989417,172.02706229989417,['1'],[1.053964499849826],,,subject_4c,2.0,2023-08-24_13h26.27.274,run_1,2023.1.2,60.00816103232573,,Hit,1,,
2.0,127.51,veridical,fps_60/1592137.bmp_pp58_L1_V1_veridical_freeview_isoFalse_fps60.mp4,3.3299999999999983,,0.0,12.0,12.0,12.0,,,,,172.02706229989417,175.77423959993757,175.77423959993757,178.8909281999804,178.8909281999804,181.8990233000368,181.8990233000368,['1'],[0.4960497000720352],,,subject_4c,2.0,2023-08-24_13h26.27.274,run_1,2023.1.2,60.00816103232573,,Hit,1,,
2.0,135.58,scrambled,fps_60/1160171.bmp_pp97_L3_V1_scrambled_freeview_isoFalse_fps60.mp4,2.0700000000000074,,0.0,13.0,13.0,13.0,,,,,181.8990233000368,184.29843760002404,184.29843760002404,187.40310680004768,187.40310680004768,190.40572439995597,190.40572439995597,,,,,subject_4c,2.0,2023-08-24_13h26.27.274,run_1,2023.1.2,60.00816103232573,,,,,
2.0,144.7,veridical,fps_60/1159819.bmp_pp63_L1_V1_veridical_freeview_isoFalse_fps60.mp4,3.119999999999976,,0.0,14.0,14.0,14.0,,,,,190.40572439995597,193.91648510005325,193.91648510005325,197.0245280999225,197.0245280999225,,,['1'],[0.548659399850294],,,subject_4c,2.0,2023-08-24_13h26.27.274,run_1,2023.1.2,60.00816103232573,,Hit,1,,
2.0,154.49,veridical,fps_60/1160171.bmp_pp97_L3_V1_veridical_freeview_isoFalse_fps60.mp4,3.790000000000021,,0.0,15.0,15.0,15.0,,,,,200.03533210000023,204.2675270999316,204.2675270999316,207.33312830002976,207.33312830002976,210.33670069999064,210.33670069999064,['1'],[0.6917966001201421],,,subject_4c,2.0,2023-08-24_13h26.27.274,run_1,2023.1.2,60.00816103232573,,Hit,1,,
2.0,162.95,scrambled,fps_60/285992.bmp_pp98_L1_V1_scrambled_freeview_isoFalse_fps60.mp4,2.4599999999999795,,0.0,16.0,16.0,16.0,,,,,210.33670069999064,213.1527807998937,213.1527807998937,216.2598514999263,216.2598514999263,219.2624995999504,219.2624995999504,['1'],[0.7087862999178469],,,subject_4c,2.0,2023-08-24_13h26.27.274,run_1,2023.1.2,60.00816103232573,,False Alarm,1,,
2.0,173.16,scrambled,fps_60/1160140.bmp_pp151_L1_V1_scrambled_freeview_isoFalse_fps60.mp4,4.210000000000008,,0.0,17.0,17.0,17.0,,,,,219.2624995999504,223.8739300998859,223.8739300998859,226.9564280998893,226.9564280998893,229.95974779990505,229.95974779990505,['2'],[0.8369725001975894],,,subject_4c,2.0,2023-08-24_13h26.27.274,run_1,2023.1.2,60.00816103232573,,Correct Reject,2,,
2.0,183.78,veridical,fps_60/1159508.bmp_pp151_L1_V1_veridical_freeview_isoFalse_fps60.mp4,4.6200000000000045,,0.0,18.0,18.0,18.0,,,,,229.95974779990505,234.96680859988555,234.96680859988555,238.05361240007915,238.05361240007915,241.05981640005484,241.05981640005484,['1'],[1.4605006999336183],,,subject_4c,2.0,2023-08-24_13h26.27.274,run_1,2023.1.2,60.00816103232573,,Hit,1,,
2.0,191.81,scrambled,fps_60/498396.bmp_pp152_L2_V1_scrambled_freeview_isoFalse_fps60.mp4,2.030000000000001,,0.0,19.0,19.0,19.0,,,,,241.05981640005484,243.4012019999791,243.4012019999791,246.506651799893,246.506651799893,249.50973180006255,249.50973180006255,['2'],[0.8233380999881774],,,subject_4c,2.0,2023-08-24_13h26.27.274,run_1,2023.1.2,60.00816103232573,,Correct Reject,2,,
1.0,10.0,scrambled,fps_60/1592044.bmp_pp90_L2_V1_scrambled_freeview_isoFalse_fps60.mp4,10.0,,0.0,0.0,0.0,0.0,,,,,453.4237090998795,463.78368779993616,463.78368779993616,466.9063035999425,466.9063035999425,469.9065542998724,469.9065542998724,['1'],[0.8672021999955177],,,subject_4c,1.0,2023-08-24_13h20.01.003,run_1,2023.1.2,59.96354216798094,,False Alarm,1,,
1.0,19.68,scrambled,fps_60/1592094.bmp_pp89_L1_V1_scrambled_freeview_isoFalse_fps60.mp4,3.68,,0.0,1.0,1.0,1.0,,,,,469.9065542998724,474.01912639988586,474.01912639988586,477.07904589991085,477.07904589991085,480.08693209989,480.08693209989,['2'],[1.3491631001234055],,,subject_4c,1.0,2023-08-24_13h20.01.003,run_1,2023.1.2,59.96354216798094,,Correct Reject,2,,
1.0,29.81,veridical,fps_60/713142.bmp_pp54_L2_V1_veridical_freeview_isoFalse_fps60.mp4,4.129999999999999,,0.0,2.0,2.0,2.0,,,,,480.08693209989,484.62771929986775,484.62771929986775,487.6957055998501,487.6957055998501,490.7034280998632,490.7034280998632,['1'],[1.2726080999709666],,,subject_4c,1.0,2023-08-24_13h20.01.003,run_1,2023.1.2,59.96354216798094,,Hit,1,,
1.0,39.08,veridical,fps_60/1159515.bmp_pp80_L3_V1_veridical_freeview_isoFalse_fps60.mp4,3.27,,0.0,3.0,3.0,3.0,,,,,490.7034280998632,494.37992389989085,494.37992389989085,497.4876920999959,497.4876920999959,500.4981764999684,500.4981764999684,['1'],[1.2011165998410434],,,subject_4c,1.0,2023-08-24_13h20.01.003,run_1,2023.1.2,59.96354216798094,,Hit,1,,
1.0,48.0,scrambled,fps_60/713142.bmp_pp54_L2_V1_scrambled_freeview_isoFalse_fps60.mp4,2.9200000000000017,,0.0,4.0,4.0,4.0,,,,,500.4981764999684,503.8364219998475,503.8364219998475,506.9508537999354,506.9508537999354,509.9576042999979,509.9576042999979,['1'],[0.867920899996534],,,subject_4c,1.0,2023-08-24_13h20.01.003,run_1,2023.1.2,59.96354216798094,,False Alarm,1,,
1.0,56.3,scrambled,fps_60/713330.bmp_pp51_L1_V1_scrambled_freeview_isoFalse_fps60.mp4,2.299999999999997,,0.0,5.0,5.0,5.0,,,,,509.9576042999979,512.617626799969,512.617626799969,515.7225562999956,515.7225562999956,518.7273581000045,518.7273581000045,['2'],[1.3960975999943912],,,subject_4c,1.0,2023-08-24_13h20.01.003,run_1,2023.1.2,59.96354216798094,,Correct Reject,2,,
1.0,66.73,veridical,fps_60/1592044.bmp_pp90_L2_V1_veridical_freeview_isoFalse_fps60.mp4,4.430000000000007,,0.0,6.0,6.0,6.0,,,,,518.7273581000045,523.6094624998514,523.6094624998514,526.7196337999776,526.7196337999776,,,['1'],[0.8495110999792814],,,subject_4c,1.0,2023-08-24_13h20.01.003,run_1,2023.1.2,59.96354216798094,,Hit,1,,
1.0,75.4,scrambled,fps_60/1159515.bmp_pp80_L3_V1_scrambled_freeview_isoFalse_fps60.mp4,2.6700000000000017,,0.0,7.0,7.0,7.0,,,,,529.7352710999548,532.7890780000016,532.7890780000016,535.892269999953,535.892269999953,538.8967460000422,538.8967460000422,['1'],[0.6163240000605583],,,subject_4c,1.0,2023-08-24_13h20.01.003,run_1,2023.1.2,59.96354216798094,,False Alarm,1,,
1.0,84.36,scrambled,fps_60/1160247.bmp_pp99_L2_V1_scrambled_freeview_isoFalse_fps60.mp4,2.9599999999999937,,0.0,8.0,8.0,8.0,,,,,538.8967460000422,542.2418557000346,542.2418557000346,545.3293238999322,545.3293238999322,,,['2'],[0.7364107999019325],,,subject_4c,1.0,2023-08-24_13h20.01.003,run_1,2023.1.2,59.96354216798094,,Correct Reject,2,,
1.0,93.97,veridical,fps_60/713807.bmp_pp152_L2_V1_veridical_freeview_isoFalse_fps60.mp4,3.61,,0.0,9.0,9.0,9.0,,,,,548.3458614998963,552.3609873000532,552.3609873000532,555.4513338999823,555.4513338999823,,,['1'],[0.8530604999978095],,,subject_4c,1.0,2023-08-24_13h20.01.003,run_1,2023.1.2,59.96354216798094,,Hit,1,,
1.0,103.09,veridical,fps_60/1592094.bmp_pp89_L1_V1_veridical_freeview_isoFalse_fps60.mp4,3.1200000000000045,,0.0,10.0,10.0,10.0,,,,,558.4635987000074,562.0145052999724,562.0145052999724,565.0831931999419,565.0831931999419,,,['1'],[0.6849464999977499],,,subject_4c,1.0,2023-08-24_13h20.01.003,run_1,2023.1.2,59.96354216798094,,Hit,1,,
1.0,112.07,scrambled,fps_60/713807.bmp_pp152_L2_V1_scrambled_freeview_isoFalse_fps60.mp4,2.9799999999999898,,0.0,11.0,11.0,11.0,,,,,568.0982053999323,571.5022201999091,571.5022201999091,574.5873209000565,574.5873209000565,,,['1'],[0.7477017000783235],,,subject_4c,1.0,2023-08-24_13h20.01.003,run_1,2023.1.2,59.96354216798094,,False Alarm,1,,
1.0,122.94,veridical,fps_60/1592836.bmp_pp64_L1_V1_veridical_freeview_isoFalse_fps60.mp4,4.8700000000000045,,0.0,12.0,12.0,12.0,,,,,577.6019617998973,582.8685176998843,582.8685176998843,585.9727238998748,585.9727238998748,,,,,,,subject_4c,1.0,2023-08-24_13h20.01.003,run_1,2023.1.2,59.96354216798094,,,,,
1.0,131.58,veridical,fps_60/1592254.bmp_pp82_L2_V1_veridical_freeview_isoFalse_fps60.mp4,2.640000000000015,,0.0,13.0,13.0,13.0,,,,,588.9862758999225,592.0493322999682,592.0493322999682,595.1490483998787,595.1490483998787,598.151288199937,598.151288199937,['1'],[0.7614333999808878],,,subject_4c,1.0,2023-08-24_13h20.01.003,run_1,2023.1.2,59.96354216798094,,Hit,1,,
1.0,143.68,veridical,fps_60/713330.bmp_pp51_L1_V1_veridical_freeview_isoFalse_fps60.mp4,6.099999999999994,,0.0,14.0,14.0,14.0,,,,,598.151288199937,604.6944317000452,604.6944317000452,607.7706748000346,607.7706748000346,610.7752384999767,610.7752384999767,['1'],[0.6980292999651283],,,subject_4c,1.0,2023-08-24_13h20.01.003,run_1,2023.1.2,59.96354216798094,,Hit,1,,
1.0,152.71,scrambled,fps_60/498155.bmp_pp99_L2_V1_scrambled_freeview_isoFalse_fps60.mp4,3.030000000000001,,0.0,15.0,15.0,15.0,,,,,610.7752384999767,614.2206498000305,614.2206498000305,617.3224875000305,617.3224875000305,,,['1'],[1.7357721999287605],,,subject_4c,1.0,2023-08-24_13h20.01.003,run_1,2023.1.2,59.96354216798094,,False Alarm,1,,
1.0,162.9,veridical,fps_60/1160247.bmp_pp99_L2_V1_veridical_freeview_isoFalse_fps60.mp4,4.189999999999998,,0.0,16.0,16.0,16.0,,,,,620.3366016999353,624.9735811999999,624.9735811999999,628.0421863000374,628.0421863000374,631.0445600999519,631.0445600999519,['2'],[0.8176384000107646],,,subject_4c,1.0,2023-08-24_13h20.01.003,run_1,2023.1.2,59.96354216798094,,Miss,2,,
1.0,171.48,veridical,fps_60/498155.bmp_pp99_L2_V1_veridical_freeview_isoFalse_fps60.mp4,2.579999999999984,,0.0,17.0,17.0,17.0,,,,,631.0445600999519,633.9937209999189,633.9937209999189,637.1000079000369,637.1000079000369,640.1018969998695,640.1018969998695,['1'],[2.952624299796298],,,subject_4c,1.0,2023-08-24_13h20.01.003,run_1,2023.1.2,59.96354216798094,,Hit,1,,
1.0,180.29,scrambled,fps_60/1592254.bmp_pp82_L2_V1_scrambled_freeview_isoFalse_fps60.mp4,2.8100000000000023,,0.0,18.0,18.0,18.0,,,,,640.1018969998695,643.2686469999608,643.2686469999608,646.4040101000573,646.4040101000573,649.4140557998326,649.4140557998326,['1'],[0.6272358999121934],,,subject_4c,1.0,2023-08-24_13h20.01.003,run_1,2023.1.2,59.96354216798094,,False Alarm,1,,
1.0,189.35,scrambled,fps_60/1592836.bmp_pp64_L1_V1_scrambled_freeview_isoFalse_fps60.mp4,3.0600000000000023,,0.0,19.0,19.0,19.0,,,,,649.4140557998326,652.8369163000025,652.8369163000025,655.9724516000133,655.9724516000133,,,['1'],[0.6695218998938799],,,subject_4c,1.0,2023-08-24_13h20.01.003,run_1,2023.1.2,59.96354216798094,,False Alarm,1,,
3.0,10.0,veridical,fps_60/285948.bmp_pp64_L1_V1_veridical_freeview_isoFalse_fps60.mp4,10.0,,0.0,0.0,0.0,0.0,,,,,35.13023669994436,45.54490299988538,45.54490299988538,48.61705009988509,48.61705009988509,,,['1'],[0.673828799976036],,,subject_4c,3.0,2023-08-24_13h30.52.097,run_1,2023.1.2,60.72408613329444,,Hit,1,,
3.0,18.94,veridical,fps_60/713285.bmp_pp53_L2_V1_veridical_freeview_isoFalse_fps60.mp4,2.9400000000000013,,0.0,1.0,1.0,1.0,,,,,51.63008379982784,54.9614520999603,54.9614520999603,58.0826425999403,58.0826425999403,61.09013669984415,61.09013669984415,['1'],[0.6054932000115514],,,subject_4c,3.0,2023-08-24_13h30.52.097,run_1,2023.1.2,60.72408613329444,,Hit,1,,
3.0,27.57,veridical,fps_60/1592530.bmp_pp75_L1_V1_veridical_freeview_isoFalse_fps60.mp4,2.629999999999999,,0.0,2.0,2.0,2.0,,,,,61.09013669984415,64.1228183999192,64.1228183999192,67.24384390003979,67.24384390003979,70.25065830000676,70.25065830000676,['1'],[0.7327598000410944],,,subject_4c,3.0,2023-08-24_13h30.52.097,run_1,2023.1.2,60.72408613329444,,Hit,1,,
3.0,37.25,scrambled,fps_60/1593056.bmp_pp93_L1_V1_scrambled_freeview_isoFalse_fps60.mp4,3.68,,0.0,3.0,3.0,3.0,,,,,70.25065830000676,74.33571189991198,74.33571189991198,77.42289009992965,77.42289009992965,80.43019609991461,80.43019609991461,['1'],[0.5298297998961061],,,subject_4c,3.0,2023-08-24_13h30.52.097,run_1,2023.1.2,60.72408613329444,,False Alarm,1,,
3.0,45.98,scrambled,fps_60/713285.bmp_pp53_L2_V1_scrambled_freeview_isoFalse_fps60.mp4,2.729999999999997,,0.0,4.0,4.0,4.0,,,,,80.43019609991461,83.56036999984644,83.56036999984644,86.6815837000031,86.6815837000031,89.68242700002156,89.68242700002156,['1'],[1.2041572998277843],,,subject_4c,3.0,2023-08-24_13h30.52.097,run_1,2023.1.2,60.72408613329444,,False Alarm,1,,
3.0,55.35,veridical,fps_60/713017.bmp_pp82_L2_V1_veridical_freeview_isoFalse_fps60.mp4,3.3700000000000045,,0.0,5.0,5.0,5.0,,,,,89.68242700002156,93.45756480004638,93.45756480004638,96.56180909997784,96.56180909997784,99.5630745999515,99.5630745999515,['1'],[0.5348797999322414],,,subject_4c,3.0,2023-08-24_13h30.52.097,run_1,2023.1.2,60.72408613329444,,Hit,1,,
3.0,67.86,scrambled,fps_60/1592530.bmp_pp75_L1_V1_scrambled_freeview_isoFalse_fps60.mp4,6.509999999999998,,0.0,6.0,6.0,6.0,,,,,99.5630745999515,106.4966664998792,106.4966664998792,109.57706559984943,109.57706559984943,112.58135150000452,112.58135150000452,['1'],[0.5791098000481725],,,subject_4c,3.0,2023-08-24_13h30.52.097,run_1,2023.1.2,60.72408613329444,,False Alarm,1,,
3.0,77.55,scrambled,fps_60/1159870.bmp_pp69_L3_V1_scrambled_freeview_isoFalse_fps60.mp4,3.6899999999999977,,0.0,7.0,7.0,7.0,,,,,112.58135150000452,116.71217920002528,116.71217920002528,119.7714974998962,119.7714974998962,122.77016650000589,122.77016650000589,['1'],[0.7665790999308228],,,subject_4c,3.0,2023-08-24_13h30.52.097,run_1,2023.1.2,60.72408613329444,,False Alarm,1,,
3.0,85.78,scrambled,fps_60/713017.bmp_pp82_L2_V1_scrambled_freeview_isoFalse_fps60.mp4,2.230000000000004,,0.0,8.0,8.0,8.0,,,,,122.77016650000589,125.34594459994696,125.34594459994696,128.45066109998152,128.45066109998152,,,['1'],[0.6460659001022577],,,subject_4c,3.0,2023-08-24_13h30.52.097,run_1,2023.1.2,60.72408613329444,,False Alarm,1,,
3.0,98.48,veridical,fps_60/1160227.bmp_pp94_L2_V1_veridical_freeview_isoFalse_fps60.mp4,6.700000000000003,,0.0,9.0,9.0,9.0,,,,,131.46319709997624,138.56633159983903,138.56633159983903,141.67118129995652,141.67118129995652,144.6745231000241,144.6745231000241,['1'],[0.7022989999968559],,,subject_4c,3.0,2023-08-24_13h30.52.097,run_1,2023.1.2,60.72408613329444,,Hit,1,,
3.0,108.18,veridical,fps_60/1159870.bmp_pp69_L3_V1_veridical_freeview_isoFalse_fps60.mp4,3.700000000000003,,0.0,10.0,10.0,10.0,,,,,144.6745231000241,148.79520479985513,148.79520479985513,151.86235719989054,151.86235719989054,154.86290999990888,154.86290999990888,['1'],[1.0511638999450952],,,subject_4c,3.0,2023-08-24_13h30.52.097,run_1,2023.1.2,60.72408613329444,,Hit,1,,
3.0,116.6,veridical,fps_60/1593056.bmp_pp93_L1_V1_veridical_freeview_isoFalse_fps60.mp4,2.4199999999999875,,0.0,11.0,11.0,11.0,,,,,154.86290999990888,157.6810020999983,157.6810020999983,160.81829429999925,160.81829429999925,163.81906989985146,163.81906989985146,['1'],[0.6955538000911474],,,subject_4c,3.0,2023-08-24_13h30.52.097,run_1,2023.1.2,60.72408613329444,,Hit,1,,
3.0,124.9,veridical,fps_60/1159325.bmp_pp67_L2_V1_veridical_freeview_isoFalse_fps60.mp4,2.300000000000012,,0.0,12.0,12.0,12.0,,,,,163.81906989985146,166.52077429997735,166.52077429997735,169.62557679996826,169.62557679996826,172.6244818000123,172.6244818000123,['2'],[2.478703800123185],,,subject_4c,3.0,2023-08-24_13h30.52.097,run_1,2023.1.2,60.72408613329444,,Miss,2,,
3.0,135.79,scrambled,fps_60/713135.bmp_pp94_L2_V1_scrambled_freeview_isoFalse_fps60.mp4,4.889999999999986,,0.0,13.0,13.0,13.0,,,,,172.6244818000123,177.9370633000508,177.9370633000508,181.00350639992396,181.00350639992396,184.0130435999017,184.0130435999017,['1'],[1.105883700074628],,,subject_4c,3.0,2023-08-24_13h30.52.097,run_1,2023.1.2,60.72408613329444,,False Alarm,1,,
3.0,146.12,scrambled,fps_60/1159325.bmp_pp67_L2_V1_scrambled_freeview_isoFalse_fps60.mp4,4.3300000000000125,,0.0,14.0,14.0,14.0,,,,,184.0130435999017,188.77310559991747,188.77310559991747,191.82378740003327,191.82378740003327,194.825218899874,194.825218899874,,,,,subject_4c,3.0,2023-08-24_13h30.52.097,run_1,2023.1.2,60.72408613329444,,,,,
3.0,155.36,veridical,fps_60/1160049.bmp_pp79_L2_V1_veridical_freeview_isoFalse_fps60.mp4,3.240000000000009,,0.0,15.0,15.0,15.0,,,,,194.825218899874,198.4173840000294,198.4173840000294,201.5368444998749,201.5368444998749,,,['1'],[0.9065982999745756],,,subject_4c,3.0,2023-08-24_13h30.52.097,run_1,2023.1.2,60.72408613329444,,Hit,1,,
3.0,166.31,veridical,fps_60/713135.bmp_pp94_L2_V1_veridical_freeview_isoFalse_fps60.mp4,4.949999999999989,,0.0,16.0,16.0,16.0,,,,,204.5506823998876,209.92696630000137,209.92696630000137,213.01202129991725,213.01202129991725,216.0145290000364,216.0145290000364,['1'],[1.2678515000734478],,,subject_4c,3.0,2023-08-24_13h30.52.097,run_1,2023.1.2,60.72408613329444,,Hit,1,,
3.0,174.33,scrambled,fps_60/1160049.bmp_pp79_L2_V1_scrambled_freeview_isoFalse_fps60.mp4,2.0200000000000102,,0.0,17.0,17.0,17.0,,,,,216.0145290000364,218.39480789983645,218.39480789983645,221.49961559986696,221.49961559986696,,,['1'],[0.5154332001693547],,,subject_4c,3.0,2023-08-24_13h30.52.097,run_1,2023.1.2,60.72408613329444,,False Alarm,1,,
3.0,183.48,scrambled,fps_60/1160227.bmp_pp94_L2_V1_scrambled_freeview_isoFalse_fps60.mp4,3.1499999999999773,,0.0,18.0,18.0,18.0,,,,,224.51365999993868,227.99714150000364,227.99714150000364,231.1349329999648,231.1349329999648,234.13393969996832,234.13393969996832,,,,,subject_4c,3.0,2023-08-24_13h30.52.097,run_1,2023.1.2,60.72408613329444,,,,,
3.0,191.98,scrambled,fps_60/285948.bmp_pp64_L1_V1_scrambled_freeview_isoFalse_fps60.mp4,2.5,,0.0,19.0,19.0,19.0,,,,,234.13393969996832,236.93114109989256,236.93114109989256,240.03666389989667,240.03666389989667,243.0460731999483,243.0460731999483,['1'],[0.5462503000162542],,,subject_4c,3.0,2023-08-24_13h30.52.097,run_1,2023.1.2,60.72408613329444,,False Alarm,1,,
4.0,10.0,scrambled,fps_60/1591975.bmp_pp86_L2_V1_scrambled_freeview_isoFalse_fps60.mp4,10.0,,0.0,0.0,0.0,0.0,,,,,46.07660109992139,56.42122030002065,56.42122030002065,59.49984659999609,59.49984659999609,,,oo1,"[0.6491851001046598, 1.8920021001249552]",,,subject_4c,4.0,2023-08-24_13h35.26.192,run_1,2023.1.2,60.06687845425641,,False Alarm,1,,
4.0,19.59,scrambled,fps_60/1592804.bmp_pp60_L3_V1_scrambled_freeview_isoFalse_fps60.mp4,3.59,,0.0,1.0,1.0,1.0,,,,,62.51213949988596,66.5350587000139,66.5350587000139,69.63978519989178,69.63978519989178,72.64014849998057,72.64014849998057,['1'],[0.7998232999816537],,,subject_4c,4.0,2023-08-24_13h35.26.192,run_1,2023.1.2,60.06687845425641,,False Alarm,1,,
4.0,28.07,scrambled,fps_60/1159318.bmp_pp93_L1_V1_scrambled_freeview_isoFalse_fps60.mp4,2.4800000000000004,,0.0,2.0,2.0,2.0,,,,,72.64014849998057,75.54177839984186,75.54177839984186,78.67957599996589,78.67957599996589,,,['1'],[0.7277883000206202],,,subject_4c,4.0,2023-08-24_13h35.26.192,run_1,2023.1.2,60.06687845425641,,False Alarm,1,,
4.0,36.17,veridical,fps_60/1159482.bmp_pp97_L3_V1_veridical_freeview_isoFalse_fps60.mp4,2.1000000000000014,,0.0,3.0,3.0,3.0,,,,,81.6949825999327,84.14445989998057,84.14445989998057,87.23101589991711,87.23101589991711,90.2406715999823,90.2406715999823,['1'],[0.5564488000236452],,,subject_4c,4.0,2023-08-24_13h35.26.192,run_1,2023.1.2,60.06687845425641,,Hit,1,,
4.0,44.9,veridical,fps_60/1591975.bmp_pp86_L2_V1_veridical_freeview_isoFalse_fps60.mp4,2.729999999999997,,0.0,4.0,4.0,4.0,,,,,90.2406715999823,93.35110730002634,93.35110730002634,96.4732408998534,96.4732408998534,99.4793395998422,99.4793395998422,['1'],[0.43523559998720884],,,subject_4c,4.0,2023-08-24_13h35.26.192,run_1,2023.1.2,60.06687845425641,,Hit,1,,
4.0,53.57,veridical,fps_60/1159777.bmp_pp56_L3_V1_veridical_freeview_isoFalse_fps60.mp4,2.6700000000000017,,0.0,5.0,5.0,5.0,,,,,99.4793395998422,102.597222100012,102.597222100012,105.682282499969,105.682282499969,108.68611449981108,108.68611449981108,['2'],[0.8980904000345618],,,subject_4c,4.0,2023-08-24_13h35.26.192,run_1,2023.1.2,60.06687845425641,,Miss,2,,
4.0,64.99,veridical,fps_60/1592804.bmp_pp60_L3_V1_veridical_freeview_isoFalse_fps60.mp4,5.419999999999995,,0.0,6.0,6.0,6.0,,,,,108.68611449981108,114.54908609995618,114.54908609995618,117.63010800001211,117.63010800001211,120.6290000998415,120.6290000998415,['1'],[0.6357665001414716],,,subject_4c,4.0,2023-08-24_13h35.26.192,run_1,2023.1.2,60.06687845425641,,Hit,1,,
4.0,73.26,scrambled,fps_60/1159777.bmp_pp56_L3_V1_scrambled_freeview_isoFalse_fps60.mp4,2.2700000000000102,,0.0,7.0,7.0,7.0,,,,,120.6290000998415,123.30045249988324,123.30045249988324,126.4214420998469,126.4214420998469,129.42236869991757,129.42236869991757,['2'],[1.0358936998527497],,,subject_4c,4.0,2023-08-24_13h35.26.192,run_1,2023.1.2,60.06687845425641,,Correct Reject,2,,
4.0,82.26,veridical,fps_60/1159318.bmp_pp93_L1_V1_veridical_freeview_isoFalse_fps60.mp4,3.0,,0.0,8.0,8.0,8.0,,,,,129.42236869991757,132.80722719989717,132.80722719989717,135.94559719995596,135.94559719995596,138.9526672998909,138.9526672998909,['1'],[0.6462444001808763],,,subject_4c,4.0,2023-08-24_13h35.26.192,run_1,2023.1.2,60.06687845425641,,Hit,1,,
4.0,93.48,scrambled,fps_60/1592568.bmp_pp81_L1_V1_scrambled_freeview_isoFalse_fps60.mp4,5.219999999999999,,0.0,9.0,9.0,9.0,,,,,138.9526672998909,144.62578949984163,144.62578949984163,147.71022149990313,147.71022149990313,,,['1'],[0.7367907001171261],,,subject_4c,4.0,2023-08-24_13h35.26.192,run_1,2023.1.2,60.06687845425641,,False Alarm,1,,
4.0,104.93,scrambled,fps_60/1159497.bmp_pp91_L3_V1_scrambled_freeview_isoFalse_fps60.mp4,5.450000000000003,,0.0,10.0,10.0,10.0,,,,,150.7242699000053,156.60121160000563,156.60121160000563,159.6854830000084,159.6854830000084,162.68615669989958,162.68615669989958,,,,,subject_4c,4.0,2023-08-24_13h35.26.192,run_1,2023.1.2,60.06687845425641,,,,,
4.0,115.01,veridical,fps_60/1592372.bmp_pp89_L1_V1_veridical_freeview_isoFalse_fps60.mp4,4.079999999999998,,0.0,11.0,11.0,11.0,,,,,162.68615669989958,167.16824439982884,167.16824439982884,170.25788709986955,170.25788709986955,173.26933909999207,173.26933909999207,['2'],[1.4449622998945415],,,subject_4c,4.0,2023-08-24_13h35.26.192,run_1,2023.1.2,60.06687845425641,,Miss,2,,
4.0,126.17,veridical,fps_60/1592568.bmp_pp81_L1_V1_veridical_freeview_isoFalse_fps60.mp4,5.159999999999997,,0.0,12.0,12.0,12.0,,,,,173.26933909999207,178.88844849984162,178.88844849984162,181.94771229987964,181.94771229987964,184.9572999000084,184.9572999000084,['1'],[0.3309065999928862],,,subject_4c,4.0,2023-08-24_13h35.26.192,run_1,2023.1.2,60.06687845425641,,Hit,1,,
4.0,136.27,veridical,fps_60/1593102.bmp_pp80_L3_V1_veridical_freeview_isoFalse_fps60.mp4,4.1000000000000085,,0.0,13.0,13.0,13.0,,,,,184.9572999000084,189.4151858999394,189.4151858999394,192.5147855998948,192.5147855998948,195.5147152999416,195.5147152999416,['1'],[0.8030304000712931],,,subject_4c,4.0,2023-08-24_13h35.26.192,run_1,2023.1.2,60.06687845425641,,Hit,1,,
4.0,147.81,veridical,fps_60/1159497.bmp_pp91_L3_V1_veridical_freeview_isoFalse_fps60.mp4,5.539999999999992,,0.0,14.0,14.0,14.0,,,,,195.5147152999416,201.4887158998754,201.4887158998754,204.57121789990924,204.57121789990924,207.57862529996785,207.57862529996785,['1'],[0.5195153998211026],,,subject_4c,4.0,2023-08-24_13h35.26.192,run_1,2023.1.2,60.06687845425641,,Hit,1,,
4.0,156.79,veridical,fps_60/1592727.bmp_pp69_L3_V1_veridical_freeview_isoFalse_fps60.mp4,2.9799999999999898,,0.0,15.0,15.0,15.0,,,,,207.57862529996785,210.9391037998721,210.9391037998721,214.04350099992007,214.04350099992007,217.05265169986524,217.05265169986524,['2'],[1.5166416999418288],,,subject_4c,4.0,2023-08-24_13h35.26.192,run_1,2023.1.2,60.06687845425641,,Miss,2,,
4.0,164.95,scrambled,fps_60/1159482.bmp_pp97_L3_V1_scrambled_freeview_isoFalse_fps60.mp4,2.1599999999999966,,0.0,16.0,16.0,16.0,,,,,217.05265169986524,219.55979099986143,219.55979099986143,222.6450261999853,222.6450261999853,225.65281370002776,225.65281370002776,['1'],[0.6677945998962969],,,subject_4c,4.0,2023-08-24_13h35.26.192,run_1,2023.1.2,60.06687845425641,,False Alarm,1,,
4.0,173.04,scrambled,fps_60/1592372.bmp_pp89_L1_V1_scrambled_freeview_isoFalse_fps60.mp4,2.0900000000000034,,0.0,17.0,17.0,17.0,,,,,225.65281370002776,228.09218459995463,228.09218459995463,231.19200509996156,231.19200509996156,234.19878879981115,234.19878879981115,['1'],[0.7046137000434101],,,subject_4c,4.0,2023-08-24_13h35.26.192,run_1,2023.1.2,60.06687845425641,,False Alarm,1,,
4.0,181.66,scrambled,fps_60/1593102.bmp_pp80_L3_V1_scrambled_freeview_isoFalse_fps60.mp4,2.6200000000000045,,0.0,18.0,18.0,18.0,,,,,234.19878879981115,237.09792289999316,237.09792289999316,240.2019865999464,240.2019865999464,243.2053239999805,243.2053239999805,['1'],[0.5844407000113279],,,subject_4c,4.0,2023-08-24_13h35.26.192,run_1,2023.1.2,60.06687845425641,,False Alarm,1,,
4.0,190.0,scrambled,fps_60/1592727.bmp_pp69_L3_V1_scrambled_freeview_isoFalse_fps60.mp4,2.3400000000000034,,0.0,19.0,19.0,19.0,,,,,243.2053239999805,245.81160639994775,245.81160639994775,248.93667119997556,248.93667119997556,251.93591929995452,251.93591929995452,['1'],[2.74970840010792],,,subject_4c,4.0,2023-08-24_13h35.26.192,run_1,2023.1.2,60.06687845425641,,False Alarm,1,,
5.0,10.0,scrambled,fps_60/497926.bmp_pp65_L3_V1_scrambled_freeview_isoFalse_fps60.mp4,10.0,,0.0,0.0,0.0,0.0,,,,,33.52243430004455,43.94562899996527,43.94562899996527,47.03022200008854,47.03022200008854,,,['1'],[0.5662481999024749],,,subject_4c,5.0,2023-08-24_13h39.59.176,run_1,2023.1.2,60.07644120241617,,False Alarm,1,,
5.0,18.08,veridical,fps_60/1159775.bmp_pp86_L2_V1_veridical_freeview_isoFalse_fps60.mp4,2.0799999999999983,,0.0,1.0,1.0,1.0,,,,,50.04294229997322,52.50309860007837,52.50309860007837,55.62447710009292,55.62447710009292,58.62746610003524,58.62746610003524,['1'],[1.0801766000222415],,,subject_4c,5.0,2023-08-24_13h39.59.176,run_1,2023.1.2,60.07644120241617,,Hit,1,,
5.0,28.72,veridical,fps_60/713089.bmp_pp91_L3_V1_veridical_freeview_isoFalse_fps60.mp4,4.640000000000001,,0.0,2.0,2.0,2.0,,,,,58.62746610003524,63.70507750008255,63.70507750008255,66.81893320009112,66.81893320009112,69.82078359997831,69.82078359997831,['1'],[1.0183983999304473],,,subject_4c,5.0,2023-08-24_13h39.59.176,run_1,2023.1.2,60.07644120241617,,Hit,1,,
5.0,43.9,scrambled,fps_60/285933.bmp_pp89_L1_V1_scrambled_freeview_isoFalse_fps60.mp4,9.18,,0.0,3.0,3.0,3.0,,,,,69.82078359997831,79.41538979997858,79.41538979997858,82.51753930002451,82.51753930002451,,,['1'],[0.8883597999811172],,,subject_4c,5.0,2023-08-24_13h39.59.176,run_1,2023.1.2,60.07644120241617,,False Alarm,1,,
5.0,52.16,veridical,fps_60/286001.bmp_pp90_L2_V1_veridical_freeview_isoFalse_fps60.mp4,2.259999999999998,,0.0,4.0,4.0,4.0,,,,,85.52903899992816,88.18848720006645,88.18848720006645,91.29297269997188,91.29297269997188,94.29332550009713,94.29332550009713,['1'],[0.7019056999124587],,,subject_4c,5.0,2023-08-24_13h39.59.176,run_1,2023.1.2,60.07644120241617,,Hit,1,,
5.0,61.44,scrambled,fps_60/1159956.bmp_pp73_L3_V1_scrambled_freeview_isoFalse_fps60.mp4,3.280000000000001,,0.0,5.0,5.0,5.0,,,,,94.29332550009713,97.98237379989588,97.98237379989588,101.08584420010448,101.08584420010448,104.0967502000276,104.0967502000276,['2'],[1.8722663999069482],,,subject_4c,5.0,2023-08-24_13h39.59.176,run_1,2023.1.2,60.07644120241617,,Correct Reject,2,,
5.0,70.46,veridical,fps_60/498151.bmp_pp60_L3_V1_veridical_freeview_isoFalse_fps60.mp4,3.019999999999996,,0.0,6.0,6.0,6.0,,,,,104.0967502000276,107.50310739991257,107.50310739991257,110.60704790009186,110.60704790009186,113.6167633999139,113.6167633999139,['2'],[1.5735154000576586],,,subject_4c,5.0,2023-08-24_13h39.59.176,run_1,2023.1.2,60.07644120241617,,Miss,2,,
5.0,79.02,veridical,fps_60/497926.bmp_pp65_L3_V1_veridical_freeview_isoFalse_fps60.mp4,2.5600000000000023,,0.0,7.0,7.0,7.0,,,,,113.6167633999139,116.52333469991572,116.52333469991572,119.6299709000159,119.6299709000159,,,['1'],[0.5492728999815881],,,subject_4c,5.0,2023-08-24_13h39.59.176,run_1,2023.1.2,60.07644120241617,,Hit,1,,
5.0,87.02,scrambled,fps_60/1159606.bmp_pp151_L1_V1_scrambled_freeview_isoFalse_fps60.mp4,2.0,,0.0,8.0,8.0,8.0,,,,,122.64437539991924,125.00681390007958,125.00681390007958,128.0960707999766,128.0960707999766,131.10083770006895,131.10083770006895,,,,,subject_4c,5.0,2023-08-24_13h39.59.176,run_1,2023.1.2,60.07644120241617,,,,,
5.0,96.61,scrambled,fps_60/713089.bmp_pp91_L3_V1_scrambled_freeview_isoFalse_fps60.mp4,3.5900000000000034,,0.0,9.0,9.0,9.0,,,,,131.10083770006895,135.09098850004375,135.09098850004375,138.1814629000146,138.1814629000146,,,['2'],[0.9769673999398947],,,subject_4c,5.0,2023-08-24_13h39.59.176,run_1,2023.1.2,60.07644120241617,,Correct Reject,2,,
5.0,106.23,veridical,fps_60/285933.bmp_pp89_L1_V1_veridical_freeview_isoFalse_fps60.mp4,3.620000000000005,,0.0,10.0,10.0,10.0,,,,,141.19546910002828,145.2482187000569,145.2482187000569,148.3297335000243,148.3297335000243,,,['2'],[0.9876959999091923],,,subject_4c,5.0,2023-08-24_13h39.59.176,run_1,2023.1.2,60.07644120241617,,Miss,2,,
5.0,114.99,veridical,fps_60/1591932.bmp_pp76_L1_V1_veridical_freeview_isoFalse_fps60.mp4,2.759999999999991,,0.0,11.0,11.0,11.0,,,,,151.34262540005147,154.4987488000188,154.4987488000188,157.62337459996343,157.62337459996343,,,,,,,subject_4c,5.0,2023-08-24_13h39.59.176,run_1,2023.1.2,60.07644120241617,,,,,
5.0,123.58,scrambled,fps_60/286001.bmp_pp90_L2_V1_scrambled_freeview_isoFalse_fps60.mp4,2.5900000000000034,,0.0,12.0,12.0,12.0,,,,,160.63767240010202,163.62514630006626,163.62514630006626,166.71028360002674,166.71028360002674,169.71064010006376,169.71064010006376,['1'],[1.2602242000866681],,,subject_4c,5.0,2023-08-24_13h39.59.176,run_1,2023.1.2,60.07644120241617,,False Alarm,1,,
5.0,133.47,veridical,fps_60/1159606.bmp_pp151_L1_V1_veridical_freeview_isoFalse_fps60.mp4,3.890000000000001,,0.0,13.0,13.0,13.0,,,,,169.71064010006376,174.02564839995466,174.02564839995466,177.10567969991826,177.10567969991826,180.11004430009052,180.11004430009052,['1'],[0.4370411999989301],,,subject_4c,5.0,2023-08-24_13h39.59.176,run_1,2023.1.2,60.07644120241617,,Hit,1,,
5.0,141.64,veridical,fps_60/1159956.bmp_pp73_L3_V1_veridical_freeview_isoFalse_fps60.mp4,2.1699999999999875,,0.0,14.0,14.0,14.0,,,,,180.11004430009052,182.65913429996,182.65913429996,185.7660364001058,185.7660364001058,188.7757866000757,188.7757866000757,['1'],[0.8214051998220384],,,subject_4c,5.0,2023-08-24_13h39.59.176,run_1,2023.1.2,60.07644120241617,,Hit,1,,
5.0,150.19,scrambled,fps_60/498151.bmp_pp60_L3_V1_scrambled_freeview_isoFalse_fps60.mp4,2.550000000000012,,0.0,15.0,15.0,15.0,,,,,188.7757866000757,191.6532515999861,191.6532515999861,194.76154479989785,194.76154479989785,197.7611022000201,197.7611022000201,['2'],[1.2112906000111252],,,subject_4c,5.0,2023-08-24_13h39.59.176,run_1,2023.1.2,60.07644120241617,,Correct Reject,2,,
5.0,158.69,scrambled,fps_60/1159775.bmp_pp86_L2_V1_scrambled_freeview_isoFalse_fps60.mp4,2.5,,0.0,16.0,16.0,16.0,,,,,197.7611022000201,200.6283096999396,200.6283096999396,203.75042599998412,203.75042599998412,206.75594720011577,206.75594720011577,['1'],[0.7199713999871165],,,subject_4c,5.0,2023-08-24_13h39.59.176,run_1,2023.1.2,60.07644120241617,,False Alarm,1,,
5.0,168.37,veridical,fps_60/1592201.bmp_pp100_L3_V1_veridical_freeview_isoFalse_fps60.mp4,3.680000000000007,,0.0,17.0,17.0,17.0,,,,,206.75594720011577,210.8541248999536,210.8541248999536,213.9397732000798,213.9397732000798,,,['1'],[0.8318272999022156],,,subject_4c,5.0,2023-08-24_13h39.59.176,run_1,2023.1.2,60.07644120241617,,Hit,1,,
5.0,177.31,scrambled,fps_60/1591932.bmp_pp76_L1_V1_scrambled_freeview_isoFalse_fps60.mp4,2.9399999999999977,,0.0,18.0,18.0,18.0,,,,,216.9548861000221,220.2402003998868,220.2402003998868,223.34615839994512,223.34615839994512,226.3529988999944,226.3529988999944,,,,,subject_4c,5.0,2023-08-24_13h39.59.176,run_1,2023.1.2,60.07644120241617,,,,,
5.0,188.96,scrambled,fps_60/1592201.bmp_pp100_L3_V1_scrambled_freeview_isoFalse_fps60.mp4,5.650000000000006,,0.0,19.0,19.0,19.0,,,,,226.3529988999944,232.34271440003067,232.34271440003067,235.4127307999879,235.4127307999879,238.41727089998312,238.41727089998312,['1'],[1.0718847999814898],,,subject_4c,5.0,2023-08-24_13h39.59.176,run_1,2023.1.2,60.07644120241617,,False Alarm,1,,
6.0,10.0,veridical,fps_60/1159329.bmp_pp95_L2_V1_veridical_freeview_isoFalse_fps60.mp4,10.0,,0.0,0.0,0.0,0.0,,,,,31.85968969995156,42.25070289988071,42.25070289988071,45.33953979983926,45.33953979983926,48.349675399949774,48.349675399949774,['1'],[0.44537780014798045],,,subject_4c,6.0,2023-08-24_13h44.10.375,run_1,2023.1.2,60.01666061211096,,Hit,1,,
6.0,21.84,scrambled,fps_60/713274.bmp_pp91_L3_V1_scrambled_freeview_isoFalse_fps60.mp4,5.84,,0.0,1.0,1.0,1.0,,,,,48.349675399949774,54.59537700004876,54.59537700004876,57.64946069987491,57.64946069987491,,,['1'],[0.3661343001294881],,,subject_4c,6.0,2023-08-24_13h44.10.375,run_1,2023.1.2,60.01666061211096,,False Alarm,1,,
6.0,29.93,veridical,fps_60/1159813.bmp_pp88_L2_V1_veridical_freeview_isoFalse_fps60.mp4,2.09,,0.0,2.0,2.0,2.0,,,,,60.662359699839726,63.1082525998354,63.1082525998354,66.23037540004589,66.23037540004589,,,['1'],[0.8053651999216527],,,subject_4c,6.0,2023-08-24_13h44.10.375,run_1,2023.1.2,60.01666061211096,,Hit,1,,
6.0,43.81,scrambled,fps_60/1592747.bmp_pp54_L2_V1_scrambled_freeview_isoFalse_fps60.mp4,7.880000000000003,,0.0,3.0,3.0,3.0,,,,,69.24526289990172,77.54213089984842,77.54213089984842,80.62958989990875,80.62958989990875,,,['1'],[1.270758300088346],,,subject_4c,6.0,2023-08-24_13h44.10.375,run_1,2023.1.2,60.01666061211096,,False Alarm,1,,
6.0,52.41,veridical,fps_60/1591977.bmp_pp58_L1_V1_veridical_freeview_isoFalse_fps60.mp4,2.5999999999999943,,0.0,4.0,4.0,4.0,,,,,83.64239609986544,86.60239030001685,86.60239030001685,89.73978479998186,89.73978479998186,,,['2'],[1.0199732000473887],,,subject_4c,6.0,2023-08-24_13h44.10.375,run_1,2023.1.2,60.01666061211096,,Miss,2,,
6.0,61.04,veridical,fps_60/1160168.bmp_pp54_L2_V1_veridical_freeview_isoFalse_fps60.mp4,2.6300000000000026,,0.0,5.0,5.0,5.0,,,,,92.7541887999978,95.80011529987678,95.80011529987678,98.90834009996615,98.90834009996615,101.90871069999412,101.90871069999412,['2'],[0.7179294000379741],,,subject_4c,6.0,2023-08-24_13h44.10.375,run_1,2023.1.2,60.01666061211096,,Miss,2,,
6.0,69.21,veridical,fps_60/1592303.bmp_pp84_L3_V1_veridical_freeview_isoFalse_fps60.mp4,2.1699999999999946,,0.0,6.0,6.0,6.0,,,,,101.90871069999412,104.44041129993276,104.44041129993276,107.54778809985146,107.54778809985146,,,['1'],[0.5019602999091148],,,subject_4c,6.0,2023-08-24_13h44.10.375,run_1,2023.1.2,60.01666061211096,,Hit,1,,
6.0,77.65,veridical,fps_60/1592747.bmp_pp54_L2_V1_veridical_freeview_isoFalse_fps60.mp4,2.440000000000012,,0.0,7.0,7.0,7.0,,,,,110.5587628998328,113.37278359988704,113.37278359988704,116.49302769987844,116.49302769987844,119.49198889988476,119.49198889988476,['1'],[0.5163201000541449],,,subject_4c,6.0,2023-08-24_13h44.10.375,run_1,2023.1.2,60.01666061211096,,Hit,1,,
6.0,86.58,veridical,fps_60/1159440.bmp_pp64_L1_V1_veridical_freeview_isoFalse_fps60.mp4,2.9299999999999926,,0.0,8.0,8.0,8.0,,,,,119.49198889988476,122.84128930000588,122.84128930000588,125.9645445998758,125.9645445998758,,,['1'],[2.3115129999350756],,,subject_4c,6.0,2023-08-24_13h44.10.375,run_1,2023.1.2,60.01666061211096,,Hit,1,,
6.0,96.2,scrambled,fps_60/150474.bmp_pp57_L1_V1_scrambled_freeview_isoFalse_fps60.mp4,3.620000000000005,,0.0,9.0,9.0,9.0,,,,,128.97530519985594,133.01950130006298,133.01950130006298,136.10632939985953,136.10632939985953,,,['1'],[0.3887697998434305],,,subject_4c,6.0,2023-08-24_13h44.10.375,run_1,2023.1.2,60.01666061211096,,False Alarm,1,,
6.0,106.26,scrambled,fps_60/1160168.bmp_pp54_L2_V1_scrambled_freeview_isoFalse_fps60.mp4,4.060000000000002,,0.0,10.0,10.0,10.0,,,,,139.12015790003352,143.61101499991491,143.61101499991491,146.71626579994336,146.71626579994336,149.7205936999526,149.7205936999526,['2'],[1.330353100085631],,,subject_4c,6.0,2023-08-24_13h44.10.375,run_1,2023.1.2,60.01666061211096,,Correct Reject,2,,
6.0,115.03,veridical,fps_60/285993.bmp_pp67_L2_V1_veridical_freeview_isoFalse_fps60.mp4,2.769999999999996,,0.0,11.0,11.0,11.0,,,,,149.7205936999526,152.90221780003048,152.90221780003048,156.00604430004023,156.00604430004023,,,['1'],[1.3888264999259263],,,subject_4c,6.0,2023-08-24_13h44.10.375,run_1,2023.1.2,60.01666061211096,,Hit,1,,
6.0,129.34,scrambled,fps_60/1592303.bmp_pp84_L3_V1_scrambled_freeview_isoFalse_fps60.mp4,8.310000000000002,,0.0,12.0,12.0,12.0,,,,,159.0197421000339,167.76851490000263,167.76851490000263,170.81823530001566,170.81823530001566,173.82442869991064,173.82442869991064,['1'],[0.5788270998746157],,,subject_4c,6.0,2023-08-24_13h44.10.375,run_1,2023.1.2,60.01666061211096,,False Alarm,1,,
6.0,137.36,scrambled,fps_60/285993.bmp_pp67_L2_V1_scrambled_freeview_isoFalse_fps60.mp4,2.0200000000000102,,0.0,13.0,13.0,13.0,,,,,173.82442869991064,176.2079843999818,176.2079843999818,179.3133181000594,179.3133181000594,,,['1'],[0.6346058999188244],,,subject_4c,6.0,2023-08-24_13h44.10.375,run_1,2023.1.2,60.01666061211096,,False Alarm,1,,
6.0,145.43,scrambled,fps_60/1159813.bmp_pp88_L2_V1_scrambled_freeview_isoFalse_fps60.mp4,2.069999999999993,,0.0,14.0,14.0,14.0,,,,,182.32535069994628,184.7327872000169,184.7327872000169,187.83540229988284,187.83540229988284,190.8378822000232,190.8378822000232,['1'],[0.4344094998668879],,,subject_4c,6.0,2023-08-24_13h44.10.375,run_1,2023.1.2,60.01666061211096,,False Alarm,1,,
6.0,155.23,scrambled,fps_60/1591977.bmp_pp58_L1_V1_scrambled_freeview_isoFalse_fps60.mp4,3.799999999999983,,0.0,15.0,15.0,15.0,,,,,190.8378822000232,195.0461919999216,195.0461919999216,198.13281029998325,198.13281029998325,201.13614950003105,201.13614950003105,['2'],[0.7220716001465917],,,subject_4c,6.0,2023-08-24_13h44.10.375,run_1,2023.1.2,60.01666061211096,,Correct Reject,2,,
6.0,165.81,scrambled,fps_60/1159329.bmp_pp95_L2_V1_scrambled_freeview_isoFalse_fps60.mp4,4.5800000000000125,,0.0,16.0,16.0,16.0,,,,,201.13614950003105,206.1488459999673,206.1488459999673,209.21879799989983,209.21879799989983,212.22975050006065,212.22975050006065,['1'],[0.3517733998596668],,,subject_4c,6.0,2023-08-24_13h44.10.375,run_1,2023.1.2,60.01666061211096,,False Alarm,1,,
6.0,174.16,veridical,fps_60/150474.bmp_pp57_L1_V1_veridical_freeview_isoFalse_fps60.mp4,2.3499999999999943,,0.0,17.0,17.0,17.0,,,,,212.22975050006065,214.94467670004812,214.94467670004812,218.0687375999987,218.0687375999987,221.07659469987263,221.07659469987263,['1'],[0.5791939001064748],,,subject_4c,6.0,2023-08-24_13h44.10.375,run_1,2023.1.2,60.01666061211096,,Hit,1,,
6.0,183.28,scrambled,fps_60/1159440.bmp_pp64_L1_V1_scrambled_freeview_isoFalse_fps60.mp4,3.1200000000000045,,0.0,18.0,18.0,18.0,,,,,221.07659469987263,224.55876269983128,224.55876269983128,227.6802980999928,227.6802980999928,,,['2'],[1.1851305000018328],,,subject_4c,6.0,2023-08-24_13h44.10.375,run_1,2023.1.2,60.01666061211096,,Correct Reject,2,,
6.0,191.93,veridical,fps_60/713274.bmp_pp91_L3_V1_veridical_freeview_isoFalse_fps60.mp4,2.6500000000000057,,0.0,19.0,19.0,19.0,,,,,230.69416780001484,233.64507129997943,233.64507129997943,236.7484836999793,236.7484836999793,239.76078390004116,239.76078390004116,['1'],[0.3503690001089126],,,subject_4c,6.0,2023-08-24_13h44.10.375,run_1,2023.1.2,60.01666061211096,,Hit,1,,
4.0,10.0,scrambled,fps_60/1591975.bmp_pp86_L2_V1_scrambled_freeview_isoFalse_fps60.mp4,10.0,,0.0,0.0,0.0,0.0,,,,,38.3460168000311,48.71924920007591,48.71924920007591,51.8011286000256,51.8011286000256,54.812956900103,54.812956900103,['2'],[0.5345081000123173],,,sub_1,4.0,2023-08-18_12h12.14.690,run_1,2023.1.2,60.0434714548476,,Correct Reject,2,,
4.0,19.59,scrambled,fps_60/1592804.bmp_pp60_L3_V1_scrambled_freeview_isoFalse_fps60.mp4,3.59,,0.0,1.0,1.0,1.0,,,,,54.812956900103,58.8468735000351,58.8468735000351,61.9583430000348,61.9583430000348,64.9661093000323,64.9661093000323,['2'],[0.9391924000810832],,,sub_1,4.0,2023-08-18_12h12.14.690,run_1,2023.1.2,60.0434714548476,,Correct Reject,2,,
4.0,28.07,scrambled,fps_60/1159318.bmp_pp93_L1_V1_scrambled_freeview_isoFalse_fps60.mp4,2.48,,0.0,2.0,2.0,2.0,,,,,64.9661093000323,67.8430641000159,67.8430641000159,70.9641139000887,70.9641139000887,,,['2'],[0.8845264000119641],,,sub_1,4.0,2023-08-18_12h12.14.690,run_1,2023.1.2,60.0434714548476,,Correct Reject,2,,
4.0,36.17,veridical,fps_60/1159482.bmp_pp97_L3_V1_veridical_freeview_isoFalse_fps60.mp4,2.1,,0.0,3.0,3.0,3.0,,,,,73.9794848000165,76.4807463000761,76.4807463000761,79.5755642000586,79.5755642000586,82.5869964000303,82.5869964000303,['1'],[0.8091632999712601],,,sub_1,4.0,2023-08-18_12h12.14.690,run_1,2023.1.2,60.0434714548476,,Hit,1,,
4.0,44.9,veridical,fps_60/1591975.bmp_pp86_L2_V1_veridical_freeview_isoFalse_fps60.mp4,2.73,,0.0,4.0,4.0,4.0,,,,,82.5869964000303,85.676692100009,85.676692100009,88.7811535000801,88.7811535000801,,,['1'],[0.8701184000819921],,,sub_1,4.0,2023-08-18_12h12.14.690,run_1,2023.1.2,60.0434714548476,,Hit,1,,
4.0,53.57,veridical,fps_60/1159777.bmp_pp56_L3_V1_veridical_freeview_isoFalse_fps60.mp4,2.67,,0.0,5.0,5.0,5.0,,,,,91.7932551000267,94.9228316000663,94.9228316000663,97.9767088000663,97.9767088000663,100.985293100006,100.985293100006,['1'],[1.0173326999647543],,,sub_1,4.0,2023-08-18_12h12.14.690,run_1,2023.1.2,60.0434714548476,,Hit,1,,
4.0,64.99,veridical,fps_60/1592804.bmp_pp60_L3_V1_veridical_freeview_isoFalse_fps60.mp4,5.42,,0.0,6.0,6.0,6.0,,,,,100.985293100006,106.850006700028,106.850006700028,109.948488200083,109.948488200083,112.95394580008,112.95394580008,['2'],[0.775171099929139],,,sub_1,4.0,2023-08-18_12h12.14.690,run_1,2023.1.2,60.0434714548476,,Miss,2,,
4.0,73.26,scrambled,fps_60/1159777.bmp_pp56_L3_V1_scrambled_freeview_isoFalse_fps60.mp4,2.27000000000001,,0.0,7.0,7.0,7.0,,,,,112.95394580008,115.647538500023,115.647538500023,118.765981000033,118.765981000033,121.776826300076,121.776826300076,['2'],[1.0401721000671387],,,sub_1,4.0,2023-08-18_12h12.14.690,run_1,2023.1.2,60.0434714548476,,Correct Reject,2,,
4.0,82.26,veridical,fps_60/1159318.bmp_pp93_L1_V1_veridical_freeview_isoFalse_fps60.mp4,3.0,,0.0,8.0,8.0,8.0,,,,,121.776826300076,125.18036280002,125.18036280002,128.314734700019,128.314734700019,131.321400400018,131.321400400018,['1'],[0.8671051000710577],,,sub_1,4.0,2023-08-18_12h12.14.690,run_1,2023.1.2,60.0434714548476,,Hit,1,,
4.0,93.48,scrambled,fps_60/1592568.bmp_pp81_L1_V1_scrambled_freeview_isoFalse_fps60.mp4,5.22,,0.0,9.0,9.0,9.0,,,,,131.321400400018,136.943025100045,136.943025100045,140.023726499989,140.023726499989,143.027888800018,143.027888800018,,,,,sub_1,4.0,2023-08-18_12h12.14.690,run_1,2023.1.2,60.0434714548476,,,,,
4.0,104.93,scrambled,fps_60/1159497.bmp_pp91_L3_V1_scrambled_freeview_isoFalse_fps60.mp4,5.45,,0.0,10.0,10.0,10.0,,,,,143.027888800018,148.871511100093,148.871511100093,151.960138800088,151.960138800088,154.964731200016,154.964731200016,['2'],[0.4974600999848917],,,sub_1,4.0,2023-08-18_12h12.14.690,run_1,2023.1.2,60.0434714548476,,Correct Reject,2,,
4.0,115.01,veridical,fps_60/1592372.bmp_pp89_L1_V1_veridical_freeview_isoFalse_fps60.mp4,4.08,,0.0,11.0,11.0,11.0,,,,,154.964731200016,159.453556400025,159.453556400025,162.522432500031,162.522432500031,165.531207200023,165.531207200023,['1'],[0.43274970003403723],,,sub_1,4.0,2023-08-18_12h12.14.690,run_1,2023.1.2,60.0434714548476,,Hit,1,,
4.0,126.17,veridical,fps_60/1592568.bmp_pp81_L1_V1_veridical_freeview_isoFalse_fps60.mp4,5.16,,0.0,12.0,12.0,12.0,,,,,165.531207200023,171.128223300097,171.128223300097,174.219788699993,174.219788699993,177.218511700048,177.218511700048,['1'],[0.7586656999774277],,,sub_1,4.0,2023-08-18_12h12.14.690,run_1,2023.1.2,60.0434714548476,,Hit,1,,
4.0,136.27,veridical,fps_60/1593102.bmp_pp80_L3_V1_veridical_freeview_isoFalse_fps60.mp4,4.100000000000009,,0.0,13.0,13.0,13.0,,,,,177.218511700048,181.784278800013,181.784278800013,184.871195500018,184.871195500018,187.87403200008,187.87403200008,['1'],[0.8509648999897763],,,sub_1,4.0,2023-08-18_12h12.14.690,run_1,2023.1.2,60.0434714548476,,Hit,1,,
4.0,147.81,veridical,fps_60/1159497.bmp_pp91_L3_V1_veridical_freeview_isoFalse_fps60.mp4,5.53999999999999,,0.0,14.0,14.0,14.0,,,,,187.87403200008,193.851877200068,193.851877200068,196.909525500028,196.909525500028,199.910249700071,199.910249700071,['1'],[1.1029315000632778],,,sub_1,4.0,2023-08-18_12h12.14.690,run_1,2023.1.2,60.0434714548476,,Hit,1,,
4.0,156.79,veridical,fps_60/1592727.bmp_pp69_L3_V1_veridical_freeview_isoFalse_fps60.mp4,2.97999999999999,,0.0,15.0,15.0,15.0,,,,,199.910249700071,203.288586700102,203.288586700102,206.405995000037,206.405995000037,209.408291600063,209.408291600063,['1'],[0.6174211000325158],,,sub_1,4.0,2023-08-18_12h12.14.690,run_1,2023.1.2,60.0434714548476,,Hit,1,,
4.0,164.95,scrambled,fps_60/1159482.bmp_pp97_L3_V1_scrambled_freeview_isoFalse_fps60.mp4,2.16,,0.0,16.0,16.0,16.0,,,,,209.408291600063,211.937235100078,211.937235100078,215.027113800053,215.027113800053,,,['1'],[1.1956089000450447],,,sub_1,4.0,2023-08-18_12h12.14.690,run_1,2023.1.2,60.0434714548476,,False Alarm,1,,
4.0,173.04,scrambled,fps_60/1592372.bmp_pp89_L1_V1_scrambled_freeview_isoFalse_fps60.mp4,2.09,,0.0,17.0,17.0,17.0,,,,,218.03967670002,220.478897700086,220.478897700086,223.594770500087,223.594770500087,226.600476899999,226.600476899999,['2'],[0.8600566999521106],,,sub_1,4.0,2023-08-18_12h12.14.690,run_1,2023.1.2,60.0434714548476,,Correct Reject,2,,
4.0,181.66,scrambled,fps_60/1593102.bmp_pp80_L3_V1_scrambled_freeview_isoFalse_fps60.mp4,2.62,,0.0,18.0,18.0,18.0,,,,,226.600476899999,229.530779600027,229.530779600027,232.655207600095,232.655207600095,235.65547420003,235.65547420003,['1'],[0.7834658999927342],,,sub_1,4.0,2023-08-18_12h12.14.690,run_1,2023.1.2,60.0434714548476,,False Alarm,1,,
4.0,190.0,scrambled,fps_60/1592727.bmp_pp69_L3_V1_scrambled_freeview_isoFalse_fps60.mp4,2.34,,0.0,19.0,19.0,19.0,,,,,235.65547420003,238.355180000071,238.355180000071,241.455394400051,241.455394400051,244.464538800064,244.464538800064,['2'],[1.1950870000291616],,,sub_1,4.0,2023-08-18_12h12.14.690,run_1,2023.1.2,60.0434714548476,,Correct Reject,2,,
1.0,10.0,scrambled,fps_60/1592044.bmp_pp90_L2_V1_scrambled_freeview_isoFalse_fps60.mp4,10.0,,0.0,0.0,0.0,0.0,,,,,439.5510106999427,449.90381649998017,449.90381649998017,453.0056535999756,453.0056535999756,,,['1'],[1.803242600057274],,,sub_1,1.0,2023-08-18_11h57.15.995,run_1,2023.1.2,59.979906731861526,,False Alarm,1,,
1.0,19.68,scrambled,fps_60/1592094.bmp_pp89_L1_V1_scrambled_freeview_isoFalse_fps60.mp4,3.68,,0.0,1.0,1.0,1.0,,,,,456.01709129998926,460.1219201999484,460.1219201999484,463.1941224000184,463.1941224000184,,,['2'],[0.4300133999204263],,,sub_1,1.0,2023-08-18_11h57.15.995,run_1,2023.1.2,59.979906731861526,,Correct Reject,2,,
1.0,29.81,veridical,fps_60/713142.bmp_pp54_L2_V1_veridical_freeview_isoFalse_fps60.mp4,4.129999999999999,,0.0,2.0,2.0,2.0,,,,,466.2097963000415,470.7897165999748,470.7897165999748,473.8768991000252,473.8768991000252,476.8777011999628,476.8777011999628,['1'],[0.6889872000319883],,,sub_1,1.0,2023-08-18_11h57.15.995,run_1,2023.1.2,59.979906731861526,,Hit,1,,
1.0,39.08,veridical,fps_60/1159515.bmp_pp80_L3_V1_veridical_freeview_isoFalse_fps60.mp4,3.27,,0.0,3.0,3.0,3.0,,,,,476.8777011999628,480.5476903000381,480.5476903000381,483.647977399989,483.647977399989,,,['2'],[1.3034988000290468],,,sub_1,1.0,2023-08-18_11h57.15.995,run_1,2023.1.2,59.979906731861526,,Miss,2,,
1.0,48.0,scrambled,fps_60/713142.bmp_pp54_L2_V1_scrambled_freeview_isoFalse_fps60.mp4,2.9200000000000017,,0.0,4.0,4.0,4.0,,,,,486.6641698000021,489.96401410002727,489.96401410002727,493.0640797000378,493.0640797000378,496.0729732000036,496.0729732000036,['2'],[0.6171939000487328],,,sub_1,1.0,2023-08-18_11h57.15.995,run_1,2023.1.2,59.979906731861526,,Correct Reject,2,,
1.0,56.3,scrambled,fps_60/713330.bmp_pp51_L1_V1_scrambled_freeview_isoFalse_fps60.mp4,2.299999999999997,,0.0,5.0,5.0,5.0,,,,,496.0729732000036,498.7762372000143,498.7762372000143,501.88289260002784,501.88289260002784,504.89116460003424,504.89116460003424,['2'],[0.7377657999750227],,,sub_1,1.0,2023-08-18_11h57.15.995,run_1,2023.1.2,59.979906731861526,,Correct Reject,2,,
1.0,66.73,veridical,fps_60/1592044.bmp_pp90_L2_V1_veridical_freeview_isoFalse_fps60.mp4,4.430000000000007,,0.0,6.0,6.0,6.0,,,,,504.89116460003424,509.76862139999866,509.76862139999866,512.8581128000515,512.8581128000515,515.8675894000335,515.8675894000335,['1'],[0.9918877000454813],,,sub_1,1.0,2023-08-18_11h57.15.995,run_1,2023.1.2,59.979906731861526,,Hit,1,,
1.0,75.4,scrambled,fps_60/1159515.bmp_pp80_L3_V1_scrambled_freeview_isoFalse_fps60.mp4,2.6700000000000017,,0.0,7.0,7.0,7.0,,,,,515.8675894000335,518.9594109000172,518.9594109000172,522.0628328999737,522.0628328999737,525.0675078999484,525.0675078999484,['2'],[1.61713809997309],,,sub_1,1.0,2023-08-18_11h57.15.995,run_1,2023.1.2,59.979906731861526,,Correct Reject,2,,
1.0,84.36,scrambled,fps_60/1160247.bmp_pp99_L2_V1_scrambled_freeview_isoFalse_fps60.mp4,2.9599999999999937,,0.0,8.0,8.0,8.0,,,,,525.0675078999484,528.4325847999426,528.4325847999426,531.5316354000242,531.5316354000242,534.5362412999384,534.5362412999384,['1'],[1.006065099965781],,,sub_1,1.0,2023-08-18_11h57.15.995,run_1,2023.1.2,59.979906731861526,,False Alarm,1,,
1.0,93.97,veridical,fps_60/713807.bmp_pp152_L2_V1_veridical_freeview_isoFalse_fps60.mp4,3.61,,0.0,9.0,9.0,9.0,,,,,534.5362412999384,538.5660249999491,538.5660249999491,541.6595671999967,541.6595671999967,544.6639823999722,544.6639823999722,['1'],[0.9269369998946786],,,sub_1,1.0,2023-08-18_11h57.15.995,run_1,2023.1.2,59.979906731861526,,Hit,1,,
1.0,103.09,veridical,fps_60/1592094.bmp_pp89_L1_V1_veridical_freeview_isoFalse_fps60.mp4,3.1200000000000045,,0.0,10.0,10.0,10.0,,,,,544.6639823999722,548.1501289999578,548.1501289999578,551.2559643000131,551.2559643000131,554.2627791999839,554.2627791999839,['1'],[1.4845221999567002],,,sub_1,1.0,2023-08-18_11h57.15.995,run_1,2023.1.2,59.979906731861526,,Hit,1,,
1.0,112.07,scrambled,fps_60/713807.bmp_pp152_L2_V1_scrambled_freeview_isoFalse_fps60.mp4,2.9799999999999898,,0.0,11.0,11.0,11.0,,,,,554.2627791999839,557.6586425999412,557.6586425999412,560.77328329999,560.77328329999,563.779738400015,563.779738400015,['2'],[0.8505032999673858],,,sub_1,1.0,2023-08-18_11h57.15.995,run_1,2023.1.2,59.979906731861526,,Correct Reject,2,,
1.0,122.94,veridical,fps_60/1592836.bmp_pp64_L1_V1_veridical_freeview_isoFalse_fps60.mp4,4.8700000000000045,,0.0,12.0,12.0,12.0,,,,,563.779738400015,569.0933929999592,569.0933929999592,572.1826169999549,572.1826169999549,575.1880094000371,575.1880094000371,['1'],[0.7727827000198886],,,sub_1,1.0,2023-08-18_11h57.15.995,run_1,2023.1.2,59.979906731861526,,Hit,1,,
1.0,131.58,veridical,fps_60/1592254.bmp_pp82_L2_V1_veridical_freeview_isoFalse_fps60.mp4,2.640000000000015,,0.0,13.0,13.0,13.0,,,,,575.1880094000371,578.2358149000211,578.2358149000211,581.3687929000007,581.3687929000007,584.3708586000139,584.3708586000139,['2'],[1.3796428999630734],,,sub_1,1.0,2023-08-18_11h57.15.995,run_1,2023.1.2,59.979906731861526,,Miss,2,,
1.0,143.68,veridical,fps_60/713330.bmp_pp51_L1_V1_veridical_freeview_isoFalse_fps60.mp4,6.099999999999994,,0.0,14.0,14.0,14.0,,,,,584.3708586000139,590.9142732999753,590.9142732999753,593.987902599969,593.987902599969,596.990034300019,596.990034300019,['1'],[0.8546694000251591],,,sub_1,1.0,2023-08-18_11h57.15.995,run_1,2023.1.2,59.979906731861526,,Hit,1,,
1.0,152.71,scrambled,fps_60/498155.bmp_pp99_L2_V1_scrambled_freeview_isoFalse_fps60.mp4,3.030000000000001,,0.0,15.0,15.0,15.0,,,,,596.990034300019,600.432803099975,600.432803099975,603.532378599979,603.532378599979,,,['2'],[0.9709877000423148],,,sub_1,1.0,2023-08-18_11h57.15.995,run_1,2023.1.2,59.979906731861526,,Correct Reject,2,,
1.0,162.9,veridical,fps_60/1160247.bmp_pp99_L2_V1_veridical_freeview_isoFalse_fps60.mp4,4.189999999999998,,0.0,16.0,16.0,16.0,,,,,606.5457927000243,611.1085540000349,611.1085540000349,614.1828820999945,614.1828820999945,617.1833233999787,617.1833233999787,['1'],[1.8574076000368223],,,sub_1,1.0,2023-08-18_11h57.15.995,run_1,2023.1.2,59.979906731861526,,Hit,1,,
1.0,171.48,veridical,fps_60/498155.bmp_pp99_L2_V1_veridical_freeview_isoFalse_fps60.mp4,2.579999999999984,,0.0,17.0,17.0,17.0,,,,,617.1833233999787,620.1827987999422,620.1827987999422,623.245836099959,623.245836099959,,,['1'],[1.075881400029175],,,sub_1,1.0,2023-08-18_11h57.15.995,run_1,2023.1.2,59.979906731861526,,Hit,1,,
1.0,180.29,scrambled,fps_60/1592254.bmp_pp82_L2_V1_scrambled_freeview_isoFalse_fps60.mp4,2.8100000000000023,,0.0,18.0,18.0,18.0,,,,,626.2572770999977,629.4153547999449,629.4153547999449,632.533711600001,632.533711600001,635.5335416999878,635.5335416999878,['2'],[0.6751152999931946],,,sub_1,1.0,2023-08-18_11h57.15.995,run_1,2023.1.2,59.979906731861526,,Correct Reject,2,,
1.0,189.35,scrambled,fps_60/1592836.bmp_pp64_L1_V1_scrambled_freeview_isoFalse_fps60.mp4,3.0600000000000023,,0.0,19.0,19.0,19.0,,,,,635.5335416999878,638.9589980000164,638.9589980000164,642.0818631999427,642.0818631999427,,,['2'],[0.7214990000938997],,,sub_1,1.0,2023-08-18_11h57.15.995,run_1,2023.1.2,59.979906731861526,,Correct Reject,2,,
2.0,10.0,scrambled,fps_60/150296.bmp_pp97_L3_V1_scrambled_freeview_isoFalse_fps60.mp4,10.0,,0.0,0.0,0.0,0.0,,,,,31.61060210003052,41.96594579995144,41.96594579995144,45.06351210002322,45.06351210002322,,,['2'],[0.8518299999414012],,,sub_1,2.0,2023-08-18_12h03.16.813,run_1,2023.1.2,60.09590104152719,,Correct Reject,2,,
2.0,18.86,veridical,fps_60/713519.bmp_pp84_L3_V1_veridical_freeview_isoFalse_fps60.mp4,2.8599999999999994,,0.0,1.0,1.0,1.0,,,,,48.07675050001126,51.330882300040685,51.330882300040685,54.41988649999257,54.41988649999257,,,['1'],[1.0792914000339806],,,sub_1,2.0,2023-08-18_12h03.16.813,run_1,2023.1.2,60.09590104152719,,Hit,1,,
2.0,27.91,scrambled,fps_60/1159819.bmp_pp63_L1_V1_scrambled_freeview_isoFalse_fps60.mp4,3.0500000000000007,,0.0,2.0,2.0,2.0,,,,,57.43388539995067,60.90961139998399,60.90961139998399,64.01378599996679,64.01378599996679,67.01593090000097,67.01593090000097,['2'],[0.8038442999823019],,,sub_1,2.0,2023-08-18_12h03.16.813,run_1,2023.1.2,60.09590104152719,,Correct Reject,2,,
2.0,37.06,veridical,fps_60/498396.bmp_pp152_L2_V1_veridical_freeview_isoFalse_fps60.mp4,3.150000000000002,,0.0,3.0,3.0,3.0,,,,,67.01593090000097,70.59996989998035,70.59996989998035,73.70680449996144,73.70680449996144,76.71249129995704,76.71249129995704,['2'],[0.7381875000428408],,,sub_1,2.0,2023-08-18_12h03.16.813,run_1,2023.1.2,60.09590104152719,,Miss,2,,
2.0,45.1,scrambled,fps_60/713707.bmp_pp63_L1_V1_scrambled_freeview_isoFalse_fps60.mp4,2.039999999999999,,0.0,4.0,4.0,4.0,,,,,76.71249129995704,79.19489849999081,79.19489849999081,82.28401860001031,82.28401860001031,85.29223529994488,85.29223529994488,['1'],[2.147652699961327],,,sub_1,2.0,2023-08-18_12h03.16.813,run_1,2023.1.2,60.09590104152719,,False Alarm,1,,
2.0,54.79,veridical,fps_60/150296.bmp_pp97_L3_V1_veridical_freeview_isoFalse_fps60.mp4,3.6899999999999977,,0.0,5.0,5.0,5.0,,,,,85.29223529994488,89.4649078999646,89.4649078999646,92.55341569997836,92.55341569997836,95.56161169998812,95.56161169998812,['1'],[0.5504507999867201],,,sub_1,2.0,2023-08-18_12h03.16.813,run_1,2023.1.2,60.09590104152719,,Hit,1,,
2.0,70.63,veridical,fps_60/285992.bmp_pp98_L1_V1_veridical_freeview_isoFalse_fps60.mp4,9.839999999999996,,0.0,6.0,6.0,6.0,,,,,95.56161169998812,105.8001121999696,105.8001121999696,108.86952109995764,108.86952109995764,,,['2'],[0.7898000000277534],,,sub_1,2.0,2023-08-18_12h03.16.813,run_1,2023.1.2,60.09590104152719,,Miss,2,,
2.0,80.7,scrambled,fps_60/1159508.bmp_pp151_L1_V1_scrambled_freeview_isoFalse_fps60.mp4,4.070000000000007,,0.0,7.0,7.0,7.0,,,,,111.8825506999856,116.40112269995734,116.40112269995734,119.51520449994132,119.51520449994132,,,['2'],[1.5658056000247598],,,sub_1,2.0,2023-08-18_12h03.16.813,run_1,2023.1.2,60.09590104152719,,Correct Reject,2,,
2.0,89.59,scrambled,fps_60/713519.bmp_pp84_L3_V1_scrambled_freeview_isoFalse_fps60.mp4,2.890000000000001,,0.0,8.0,8.0,8.0,,,,,122.52657159999944,125.81837630004156,125.81837630004156,128.91998300002888,128.91998300002888,131.92221889994107,131.92221889994107,['2'],[1.1380924999248236],,,sub_1,2.0,2023-08-18_12h03.16.813,run_1,2023.1.2,60.09590104152719,,Correct Reject,2,,
2.0,98.25,veridical,fps_60/713707.bmp_pp63_L1_V1_veridical_freeview_isoFalse_fps60.mp4,2.6599999999999966,,0.0,9.0,9.0,9.0,,,,,131.92221889994107,134.98891499999445,134.98891499999445,138.07109520002268,138.07109520002268,,,['2'],[1.4471173000056297],,,sub_1,2.0,2023-08-18_12h03.16.813,run_1,2023.1.2,60.09590104152719,,Miss,2,,
2.0,108.09,scrambled,fps_60/1592137.bmp_pp58_L1_V1_scrambled_freeview_isoFalse_fps60.mp4,3.8400000000000034,,0.0,10.0,10.0,10.0,,,,,141.0836092999671,145.36657780001406,145.36657780001406,148.44083840004168,148.44083840004168,151.44751730002463,151.44751730002463,,,,,sub_1,2.0,2023-08-18_12h03.16.813,run_1,2023.1.2,60.09590104152719,,,,,
2.0,118.18,veridical,fps_60/1160140.bmp_pp151_L1_V1_veridical_freeview_isoFalse_fps60.mp4,4.090000000000003,,0.0,11.0,11.0,11.0,,,,,151.44751730002463,155.92058479995467,155.92058479995467,159.0096632000059,159.0096632000059,162.0133698999416,162.0133698999416,['2'],[0.8165252000326291],,,sub_1,2.0,2023-08-18_12h03.16.813,run_1,2023.1.2,60.09590104152719,,Miss,2,,
2.0,127.51,veridical,fps_60/1592137.bmp_pp58_L1_V1_veridical_freeview_isoFalse_fps60.mp4,3.3299999999999983,,0.0,12.0,12.0,12.0,,,,,162.0133698999416,165.72707439993974,165.72707439993974,168.8450179999927,168.8450179999927,171.85262889997102,171.85262889997102,['1'],[1.4974600999848917],,,sub_1,2.0,2023-08-18_12h03.16.813,run_1,2023.1.2,60.09590104152719,,Hit,1,,
2.0,135.58,scrambled,fps_60/1160171.bmp_pp97_L3_V1_scrambled_freeview_isoFalse_fps60.mp4,2.0700000000000074,,0.0,13.0,13.0,13.0,,,,,171.85262889997102,174.3537010999862,174.3537010999862,177.4696490999777,177.4696490999777,180.4711354000028,180.4711354000028,['2'],[0.466609499999322],,,sub_1,2.0,2023-08-18_12h03.16.813,run_1,2023.1.2,60.09590104152719,,Correct Reject,2,,
2.0,144.7,veridical,fps_60/1159819.bmp_pp63_L1_V1_veridical_freeview_isoFalse_fps60.mp4,3.119999999999976,,0.0,14.0,14.0,14.0,,,,,180.4711354000028,184.02373070002068,184.02373070002068,187.1191087999614,187.1191087999614,190.12790640001185,190.12790640001185,['1'],[0.8975844000233337],,,sub_1,2.0,2023-08-18_12h03.16.813,run_1,2023.1.2,60.09590104152719,,Hit,1,,
2.0,154.49,veridical,fps_60/1160171.bmp_pp97_L3_V1_veridical_freeview_isoFalse_fps60.mp4,3.790000000000021,,0.0,15.0,15.0,15.0,,,,,190.12790640001185,194.33280550001652,194.33280550001652,197.40393559995573,197.40393559995573,200.40683939994776,200.40683939994776,['1'],[0.6733223999617621],,,sub_1,2.0,2023-08-18_12h03.16.813,run_1,2023.1.2,60.09590104152719,,Hit,1,,
2.0,162.95,scrambled,fps_60/285992.bmp_pp98_L1_V1_scrambled_freeview_isoFalse_fps60.mp4,2.4599999999999795,,0.0,16.0,16.0,16.0,,,,,200.40683939994776,203.3002225999953,203.3002225999953,206.3960809999844,206.3960809999844,,,['2'],[0.6865122000453994],,,sub_1,2.0,2023-08-18_12h03.16.813,run_1,2023.1.2,60.09590104152719,,Correct Reject,2,,
2.0,173.16,scrambled,fps_60/1160140.bmp_pp151_L1_V1_scrambled_freeview_isoFalse_fps60.mp4,4.210000000000008,,0.0,17.0,17.0,17.0,,,,,209.409184499993,214.07726589997765,214.07726589997765,217.16507560003083,217.16507560003083,220.17510100000072,220.17510100000072,['2'],[1.5109830999281257],,,sub_1,2.0,2023-08-18_12h03.16.813,run_1,2023.1.2,60.09590104152719,,Correct Reject,2,,
2.0,183.78,veridical,fps_60/1159508.bmp_pp151_L1_V1_veridical_freeview_isoFalse_fps60.mp4,4.6200000000000045,,0.0,18.0,18.0,18.0,,,,,220.17510100000072,225.17483499995436,225.17483499995436,228.2698919000104,228.2698919000104,,,['1'],[0.78083990002051],,,sub_1,2.0,2023-08-18_12h03.16.813,run_1,2023.1.2,60.09590104152719,,Hit,1,,
2.0,191.81,scrambled,fps_60/498396.bmp_pp152_L2_V1_scrambled_freeview_isoFalse_fps60.mp4,2.030000000000001,,0.0,19.0,19.0,19.0,,,,,231.2842094999505,233.67642999999225,233.67642999999225,236.78178900002968,236.78178900002968,239.78359400003683,239.78359400003683,['1'],[0.9076757000293583],,,sub_1,2.0,2023-08-18_12h03.16.813,run_1,2023.1.2,60.09590104152719,,False Alarm,1,,
5.0,10.0,scrambled,fps_60/497926.bmp_pp65_L3_V1_scrambled_freeview_isoFalse_fps60.mp4,10.0,,0.0,0.0,0.0,0.0,,,,,32.57916029996704,42.986180900014006,42.986180900014006,46.06072429998312,46.06072429998312,49.07012849999592,49.07012849999592,['2'],[0.7956243000226095],,,sub_1,5.0,2023-08-18_12h23.42.131,run_1,2023.1.2,59.98015856608127,,Correct Reject,2,,
5.0,18.08,veridical,fps_60/1159775.bmp_pp86_L2_V1_veridical_freeview_isoFalse_fps60.mp4,2.0799999999999983,,0.0,1.0,1.0,1.0,,,,,49.07012849999592,51.55629249999765,51.55629249999765,54.675751799950376,54.675751799950376,57.68482880003285,57.68482880003285,['1'],[0.9482240000506863],,,sub_1,5.0,2023-08-18_12h23.42.131,run_1,2023.1.2,59.98015856608127,,Hit,1,,
5.0,28.72,veridical,fps_60/713089.bmp_pp91_L3_V1_veridical_freeview_isoFalse_fps60.mp4,4.640000000000001,,0.0,2.0,2.0,2.0,,,,,57.68482880003285,62.77933559997473,62.77933559997473,65.86765729996841,65.86765729996841,68.87651850003749,68.87651850003749,['1'],[0.8154258000431582],,,sub_1,5.0,2023-08-18_12h23.42.131,run_1,2023.1.2,59.98015856608127,,Hit,1,,
5.0,43.9,scrambled,fps_60/285933.bmp_pp89_L1_V1_scrambled_freeview_isoFalse_fps60.mp4,9.18,,0.0,3.0,3.0,3.0,,,,,68.87651850003749,78.49597579997499,78.49597579997499,81.58487609995063,81.58487609995063,84.59057620004751,84.59057620004751,['2'],[0.4703776000533253],,,sub_1,5.0,2023-08-18_12h23.42.131,run_1,2023.1.2,59.98015856608127,,Correct Reject,2,,
5.0,52.16,veridical,fps_60/286001.bmp_pp90_L2_V1_veridical_freeview_isoFalse_fps60.mp4,2.259999999999998,,0.0,4.0,4.0,4.0,,,,,84.59057620004751,87.28247360000387,87.28247360000387,90.36688330001198,90.36688330001198,93.37617419997696,93.37617419997696,['1'],[0.7161811999976635],,,sub_1,5.0,2023-08-18_12h23.42.131,run_1,2023.1.2,59.98015856608127,,Hit,1,,
5.0,61.44,scrambled,fps_60/1159956.bmp_pp73_L3_V1_scrambled_freeview_isoFalse_fps60.mp4,3.280000000000001,,0.0,5.0,5.0,5.0,,,,,93.37617419997696,97.07130099995992,97.07130099995992,100.17169970006216,100.17169970006216,103.17377029999624,103.17377029999624,['1'],[0.5177369000157341],,,sub_1,5.0,2023-08-18_12h23.42.131,run_1,2023.1.2,59.98015856608127,,False Alarm,1,,
5.0,70.46,veridical,fps_60/498151.bmp_pp60_L3_V1_veridical_freeview_isoFalse_fps60.mp4,3.019999999999996,,0.0,6.0,6.0,6.0,,,,,103.17377029999624,106.6373770000646,106.6373770000646,109.72720269998536,109.72720269998536,,,['1'],[0.7865357999689877],,,sub_1,5.0,2023-08-18_12h23.42.131,run_1,2023.1.2,59.98015856608127,,Hit,1,,
5.0,79.02,veridical,fps_60/497926.bmp_pp65_L3_V1_veridical_freeview_isoFalse_fps60.mp4,2.5600000000000023,,0.0,7.0,7.0,7.0,,,,,112.73898090003058,115.72794400004204,115.72794400004204,118.83978979999664,118.83978979999664,121.83919930004048,121.83919930004048,['1'],[0.7832156999502331],,,sub_1,5.0,2023-08-18_12h23.42.131,run_1,2023.1.2,59.98015856608127,,Hit,1,,
5.0,87.02,scrambled,fps_60/1159606.bmp_pp151_L1_V1_scrambled_freeview_isoFalse_fps60.mp4,2.0,,0.0,8.0,8.0,8.0,,,,,121.83919930004048,124.26495430001523,124.26495430001523,127.34763740003108,127.34763740003108,130.3472481999779,130.3472481999779,['2'],[0.4530679000308737],,,sub_1,5.0,2023-08-18_12h23.42.131,run_1,2023.1.2,59.98015856608127,,Correct Reject,2,,
5.0,96.61,scrambled,fps_60/713089.bmp_pp91_L3_V1_scrambled_freeview_isoFalse_fps60.mp4,3.5900000000000034,,0.0,9.0,9.0,9.0,,,,,130.3472481999779,134.4290424999781,134.4290424999781,137.54671959998086,137.54671959998086,140.55300019995775,140.55300019995775,['2'],[0.83552740002051],,,sub_1,5.0,2023-08-18_12h23.42.131,run_1,2023.1.2,59.98015856608127,,Correct Reject,2,,
5.0,106.23,veridical,fps_60/285933.bmp_pp89_L1_V1_veridical_freeview_isoFalse_fps60.mp4,3.620000000000005,,0.0,10.0,10.0,10.0,,,,,140.55300019995775,144.65272350003943,144.65272350003943,147.7340301000513,147.7340301000513,150.7389216000447,150.7389216000447,['1'],[0.4971275998977944],,,sub_1,5.0,2023-08-18_12h23.42.131,run_1,2023.1.2,59.98015856608127,,Hit,1,,
5.0,114.99,veridical,fps_60/1591932.bmp_pp76_L1_V1_veridical_freeview_isoFalse_fps60.mp4,2.759999999999991,,0.0,11.0,11.0,11.0,,,,,150.7389216000447,153.9495062000351,153.9495062000351,157.06627329997718,157.06627329997718,160.07246539997868,160.07246539997868,['1'],[0.7235398000339046],,,sub_1,5.0,2023-08-18_12h23.42.131,run_1,2023.1.2,59.98015856608127,,Hit,1,,
5.0,123.58,scrambled,fps_60/286001.bmp_pp90_L2_V1_scrambled_freeview_isoFalse_fps60.mp4,2.5900000000000034,,0.0,12.0,12.0,12.0,,,,,160.07246539997868,163.07503569999244,163.07503569999244,166.16384739999194,166.16384739999194,,,['2'],[0.9576439999509603],,,sub_1,5.0,2023-08-18_12h23.42.131,run_1,2023.1.2,59.98015856608127,,Correct Reject,2,,
5.0,133.47,veridical,fps_60/1159606.bmp_pp151_L1_V1_veridical_freeview_isoFalse_fps60.mp4,3.890000000000001,,0.0,13.0,13.0,13.0,,,,,169.1764043000294,173.5419459999539,173.5419459999539,176.61326120002195,176.61326120002195,179.62273669999558,179.62273669999558,['1'],[0.7688701999140903],,,sub_1,5.0,2023-08-18_12h23.42.131,run_1,2023.1.2,59.98015856608127,,Hit,1,,
5.0,141.64,veridical,fps_60/1159956.bmp_pp73_L3_V1_veridical_freeview_isoFalse_fps60.mp4,2.1699999999999875,,0.0,14.0,14.0,14.0,,,,,179.62273669999558,182.2244410000276,182.2244410000276,185.32381630002052,185.32381630002052,188.32778739999048,188.32778739999048,['1'],[0.9375659000361338],,,sub_1,5.0,2023-08-18_12h23.42.131,run_1,2023.1.2,59.98015856608127,,Hit,1,,
5.0,150.19,scrambled,fps_60/498151.bmp_pp60_L3_V1_scrambled_freeview_isoFalse_fps60.mp4,2.550000000000012,,0.0,15.0,15.0,15.0,,,,,188.32778739999048,191.2715836999705,191.2715836999705,194.35289280000143,194.35289280000143,197.3555786999641,197.3555786999641,['2'],[0.6847287999698892],,,sub_1,5.0,2023-08-18_12h23.42.131,run_1,2023.1.2,59.98015856608127,,Correct Reject,2,,
5.0,158.69,scrambled,fps_60/1159775.bmp_pp86_L2_V1_scrambled_freeview_isoFalse_fps60.mp4,2.5,,0.0,16.0,16.0,16.0,,,,,197.3555786999641,200.27922360005323,200.27922360005323,203.3964712000452,203.3964712000452,206.40083469997623,206.40083469997623,['2'],[1.2166496999561787],,,sub_1,5.0,2023-08-18_12h23.42.131,run_1,2023.1.2,59.98015856608127,,Correct Reject,2,,
5.0,168.37,veridical,fps_60/1592201.bmp_pp100_L3_V1_veridical_freeview_isoFalse_fps60.mp4,3.680000000000007,,0.0,17.0,17.0,17.0,,,,,206.40083469997623,210.5184658999788,210.5184658999788,213.6115359000396,213.6115359000396,216.61674600001425,216.61674600001425,['1'],[0.9131905999965966],,,sub_1,5.0,2023-08-18_12h23.42.131,run_1,2023.1.2,59.98015856608127,,Hit,1,,
5.0,177.31,scrambled,fps_60/1591932.bmp_pp76_L1_V1_scrambled_freeview_isoFalse_fps60.mp4,2.9399999999999977,,0.0,18.0,18.0,18.0,,,,,216.61674600001425,219.962187099969,219.962187099969,223.0785087000113,223.0785087000113,,,['2'],[0.6891466999659315],,,sub_1,5.0,2023-08-18_12h23.42.131,run_1,2023.1.2,59.98015856608127,,Correct Reject,2,,
5.0,188.96,scrambled,fps_60/1592201.bmp_pp100_L3_V1_scrambled_freeview_isoFalse_fps60.mp4,5.650000000000006,,0.0,19.0,19.0,19.0,,,,,226.0940002000425,232.13967669999693,232.13967669999693,235.2286306000315,235.2286306000315,238.23721289995592,238.23721289995592,['2'],[0.7719243000028655],,,sub_1,5.0,2023-08-18_12h23.42.131,run_1,2023.1.2,59.98015856608127,,Correct Reject,2,,
3.0,10.0,veridical,fps_60/285948.bmp_pp64_L1_V1_veridical_freeview_isoFalse_fps60.mp4,10.0,,0.0,0.0,0.0,0.0,,,,,34.19146180001553,44.57079120003618,44.57079120003618,47.64819219999481,47.64819219999481,,,['1'],[0.8699138999218121],,,sub_1,3.0,2023-08-18_12h07.44.877,run_1,2023.1.2,59.95624392107808,,Hit,1,,
3.0,18.94,veridical,fps_60/713285.bmp_pp53_L2_V1_veridical_freeview_isoFalse_fps60.mp4,2.9400000000000013,,0.0,1.0,1.0,1.0,,,,,50.66311510000378,53.9874465999892,53.9874465999892,57.10695609997492,57.10695609997492,60.11175699997693,60.11175699997693,['1'],[0.783763200044632],,,sub_1,3.0,2023-08-18_12h07.44.877,run_1,2023.1.2,59.95624392107808,,Hit,1,,
3.0,27.57,veridical,fps_60/1592530.bmp_pp75_L1_V1_veridical_freeview_isoFalse_fps60.mp4,2.629999999999999,,0.0,2.0,2.0,2.0,,,,,60.11175699997693,63.18564919999335,63.18564919999335,66.3051162000047,66.3051162000047,69.30730250000488,69.30730250000488,['1'],[0.5212553000310436],,,sub_1,3.0,2023-08-18_12h07.44.877,run_1,2023.1.2,59.95624392107808,,Hit,1,,
3.0,37.25,scrambled,fps_60/1593056.bmp_pp93_L1_V1_scrambled_freeview_isoFalse_fps60.mp4,3.68,,0.0,3.0,3.0,3.0,,,,,69.30730250000488,73.42739229998551,73.42739229998551,76.51981269998942,76.51981269998942,79.52572090004105,79.52572090004105,['2'],[0.7420873999362811],,,sub_1,3.0,2023-08-18_12h07.44.877,run_1,2023.1.2,59.95624392107808,,Correct Reject,2,,
3.0,45.98,scrambled,fps_60/713285.bmp_pp53_L2_V1_scrambled_freeview_isoFalse_fps60.mp4,2.729999999999997,,0.0,4.0,4.0,4.0,,,,,79.52572090004105,82.6861699000001,82.6861699000001,85.78825069998857,85.78825069998857,88.79599280003458,88.79599280003458,['2'],[1.3352349000051618],,,sub_1,3.0,2023-08-18_12h07.44.877,run_1,2023.1.2,59.95624392107808,,Correct Reject,2,,
3.0,55.35,veridical,fps_60/713017.bmp_pp82_L2_V1_veridical_freeview_isoFalse_fps60.mp4,3.3700000000000045,,0.0,5.0,5.0,5.0,,,,,88.79599280003458,92.5952091999352,92.5952091999352,95.69811829994433,95.69811829994433,,,['1'],[0.6994434000225738],,,sub_1,3.0,2023-08-18_12h07.44.877,run_1,2023.1.2,59.95624392107808,,Hit,1,,
3.0,67.86,scrambled,fps_60/1592530.bmp_pp75_L1_V1_scrambled_freeview_isoFalse_fps60.mp4,6.509999999999998,,0.0,6.0,6.0,6.0,,,,,98.71245889994316,105.68924239999616,105.68924239999616,108.75728549994528,108.75728549994528,111.75907899998128,111.75907899998128,['1'],[1.1851298999972641],,,sub_1,3.0,2023-08-18_12h07.44.877,run_1,2023.1.2,59.95624392107808,,False Alarm,1,,
3.0,77.55,scrambled,fps_60/1159870.bmp_pp69_L3_V1_scrambled_freeview_isoFalse_fps60.mp4,3.6899999999999977,,0.0,7.0,7.0,7.0,,,,,111.75907899998128,115.89492430002429,115.89492430002429,118.95227819995488,118.95227819995488,,,['2'],[0.6321745000313967],,,sub_1,3.0,2023-08-18_12h07.44.877,run_1,2023.1.2,59.95624392107808,,Correct Reject,2,,
3.0,85.78,scrambled,fps_60/713017.bmp_pp82_L2_V1_scrambled_freeview_isoFalse_fps60.mp4,2.230000000000004,,0.0,8.0,8.0,8.0,,,,,121.9656915999949,124.5933212999953,124.5933212999953,127.67405569995752,127.67405569995752,130.67795149993617,130.67795149993617,['2'],[0.8274402000242844],,,sub_1,3.0,2023-08-18_12h07.44.877,run_1,2023.1.2,59.95624392107808,,Correct Reject,2,,
3.0,98.48,veridical,fps_60/1160227.bmp_pp94_L2_V1_veridical_freeview_isoFalse_fps60.mp4,6.700000000000003,,0.0,9.0,9.0,9.0,,,,,130.67795149993617,137.84367349999957,137.84367349999957,140.9503121000016,140.9503121000016,143.952249999973,143.952249999973,['1'],[1.0939463999820873],,,sub_1,3.0,2023-08-18_12h07.44.877,run_1,2023.1.2,59.95624392107808,,Hit,1,,
3.0,108.18,veridical,fps_60/1159870.bmp_pp69_L3_V1_veridical_freeview_isoFalse_fps60.mp4,3.700000000000003,,0.0,10.0,10.0,10.0,,,,,143.952249999973,148.07884550001472,148.07884550001472,151.14595879998524,151.14595879998524,154.1498985999497,154.1498985999497,['1'],[1.0515067999949679],,,sub_1,3.0,2023-08-18_12h07.44.877,run_1,2023.1.2,59.95624392107808,,Hit,1,,
3.0,116.6,veridical,fps_60/1593056.bmp_pp93_L1_V1_veridical_freeview_isoFalse_fps60.mp4,2.4199999999999875,,0.0,11.0,11.0,11.0,,,,,154.1498985999497,156.9969503999455,156.9969503999455,160.12894189998042,160.12894189998042,163.12892789999023,163.12892789999023,,,,,sub_1,3.0,2023-08-18_12h07.44.877,run_1,2023.1.2,59.95624392107808,,,,,
3.0,124.9,veridical,fps_60/1159325.bmp_pp67_L2_V1_veridical_freeview_isoFalse_fps60.mp4,2.300000000000012,,0.0,12.0,12.0,12.0,,,,,163.12892789999023,165.84007879998535,165.84007879998535,168.92885869997554,168.92885869997554,171.92966299992986,171.92966299992986,['1'],[0.79724260000512],,,sub_1,3.0,2023-08-18_12h07.44.877,run_1,2023.1.2,59.95624392107808,,Hit,1,,
3.0,135.79,scrambled,fps_60/713135.bmp_pp94_L2_V1_scrambled_freeview_isoFalse_fps60.mp4,4.889999999999986,,0.0,13.0,13.0,13.0,,,,,171.92966299992986,177.2373460000381,177.2373460000381,180.3041469999589,180.3041469999589,183.3139964999864,183.3139964999864,['2'],[0.4860558999935165],,,sub_1,3.0,2023-08-18_12h07.44.877,run_1,2023.1.2,59.95624392107808,,Correct Reject,2,,
3.0,146.12,scrambled,fps_60/1159325.bmp_pp67_L2_V1_scrambled_freeview_isoFalse_fps60.mp4,4.3300000000000125,,0.0,14.0,14.0,14.0,,,,,183.3139964999864,188.0159884999739,188.0159884999739,191.0699243999552,191.0699243999552,194.07412629993632,194.07412629993632,['2'],[0.7230890999780968],,,sub_1,3.0,2023-08-18_12h07.44.877,run_1,2023.1.2,59.95624392107808,,Correct Reject,2,,
3.0,155.36,veridical,fps_60/1160049.bmp_pp79_L2_V1_veridical_freeview_isoFalse_fps60.mp4,3.240000000000009,,0.0,15.0,15.0,15.0,,,,,194.07412629993632,197.74421439995055,197.74421439995055,200.8598963000113,200.8598963000113,203.8613267999608,203.8613267999608,['1'],[1.0719195998972282],,,sub_1,3.0,2023-08-18_12h07.44.877,run_1,2023.1.2,59.95624392107808,,Hit,1,,
3.0,166.31,veridical,fps_60/713135.bmp_pp94_L2_V1_veridical_freeview_isoFalse_fps60.mp4,4.949999999999989,,0.0,16.0,16.0,16.0,,,,,203.8613267999608,209.2641141000204,209.2641141000204,212.3496686000144,212.3496686000144,215.3606201999355,215.3606201999355,['1'],[1.105568700004369],,,sub_1,3.0,2023-08-18_12h07.44.877,run_1,2023.1.2,59.95624392107808,,Hit,1,,
3.0,174.33,scrambled,fps_60/1160049.bmp_pp79_L2_V1_scrambled_freeview_isoFalse_fps60.mp4,2.0200000000000102,,0.0,17.0,17.0,17.0,,,,,215.3606201999355,217.7621642999584,217.7621642999584,220.86611569998783,220.86611569998783,223.87541889993008,223.87541889993008,['1'],[0.6820833999663591],,,sub_1,3.0,2023-08-18_12h07.44.877,run_1,2023.1.2,59.95624392107808,,False Alarm,1,,
3.0,183.48,scrambled,fps_60/1160227.bmp_pp94_L2_V1_scrambled_freeview_isoFalse_fps60.mp4,3.1499999999999773,,0.0,18.0,18.0,18.0,,,,,223.87541889993008,227.39332909998484,227.39332909998484,230.5309215999441,230.5309215999441,233.53069039992988,233.53069039992988,['2'],[0.8651511000934988],,,sub_1,3.0,2023-08-18_12h07.44.877,run_1,2023.1.2,59.95624392107808,,Correct Reject,2,,
3.0,191.98,scrambled,fps_60/285948.bmp_pp64_L1_V1_scrambled_freeview_isoFalse_fps60.mp4,2.5,,0.0,19.0,19.0,19.0,,,,,233.53069039992988,236.4171980000101,236.4171980000101,239.5328193999594,239.5328193999594,242.54208709998056,242.54208709998056,['2'],[1.2887978999642655],,,sub_1,3.0,2023-08-18_12h07.44.877,run_1,2023.1.2,59.95624392107808,,Correct Reject,2,,
6.0,10.0,veridical,fps_60/1159329.bmp_pp95_L2_V1_veridical_freeview_isoFalse_fps60.mp4,10.0,,0.0,0.0,0.0,0.0,,,,,67.79815700009931,78.17756650003139,78.17756650003139,81.24323000002187,81.24323000002187,,,oo2,"[0.6329582000616938, 1.570515500032343]",,,sub_1,6.0,2023-08-18_12h28.10.706,run_1,2023.1.2,60.03435165200684,,Miss,2,,
6.0,21.84,scrambled,fps_60/713274.bmp_pp91_L3_V1_scrambled_freeview_isoFalse_fps60.mp4,5.84,,0.0,1.0,1.0,1.0,,,,,84.25485720008146,90.51635680010077,90.51635680010077,93.58669860009104,93.58669860009104,96.59215590008534,96.59215590008534,['2'],[0.7662394000217319],,,sub_1,6.0,2023-08-18_12h28.10.706,run_1,2023.1.2,60.03435165200684,,Correct Reject,2,,
6.0,29.93,veridical,fps_60/1159813.bmp_pp88_L2_V1_veridical_freeview_isoFalse_fps60.mp4,2.09,,0.0,2.0,2.0,2.0,,,,,96.59215590008534,99.09664300002623,99.09664300002623,102.19234240008518,102.19234240008518,105.20287630008534,105.20287630008534,['1'],[0.8135665999725461],,,sub_1,6.0,2023-08-18_12h28.10.706,run_1,2023.1.2,60.03435165200684,,Hit,1,,
6.0,43.81,scrambled,fps_60/1592747.bmp_pp54_L2_V1_scrambled_freeview_isoFalse_fps60.mp4,7.880000000000003,,0.0,3.0,3.0,3.0,,,,,105.20287630008534,113.52233910001814,113.52233910001814,116.5951210000785,116.5951210000785,119.59813300007954,119.59813300007954,['2'],[0.7326522999210283],,,sub_1,6.0,2023-08-18_12h28.10.706,run_1,2023.1.2,60.03435165200684,,Correct Reject,2,,
6.0,52.41,veridical,fps_60/1591977.bmp_pp58_L1_V1_veridical_freeview_isoFalse_fps60.mp4,2.5999999999999943,,0.0,4.0,4.0,4.0,,,,,119.59813300007954,122.5509078000905,122.5509078000905,125.68631150003056,125.68631150003056,128.68955080001615,128.68955080001615,['2'],[0.5661646999651566],,,sub_1,6.0,2023-08-18_12h28.10.706,run_1,2023.1.2,60.03435165200684,,Miss,2,,
6.0,61.04,veridical,fps_60/1160168.bmp_pp54_L2_V1_veridical_freeview_isoFalse_fps60.mp4,2.6300000000000026,,0.0,5.0,5.0,5.0,,,,,128.68955080001615,131.70737499999814,131.70737499999814,134.8475264000008,134.8475264000008,137.84808900009375,137.84808900009375,['2'],[1.3398435999406502],,,sub_1,6.0,2023-08-18_12h28.10.706,run_1,2023.1.2,60.03435165200684,,Miss,2,,
6.0,69.21,veridical,fps_60/1592303.bmp_pp84_L3_V1_veridical_freeview_isoFalse_fps60.mp4,2.1699999999999946,,0.0,6.0,6.0,6.0,,,,,137.84808900009375,140.4348544999957,140.4348544999957,143.53783440007828,143.53783440007828,146.5401862000581,146.5401862000581,['2'],[0.9624833998968825],,,sub_1,6.0,2023-08-18_12h28.10.706,run_1,2023.1.2,60.03435165200684,,Miss,2,,
6.0,77.65,veridical,fps_60/1592747.bmp_pp54_L2_V1_veridical_freeview_isoFalse_fps60.mp4,2.440000000000012,,0.0,7.0,7.0,7.0,,,,,146.5401862000581,149.33956860005856,149.33956860005856,152.4465226000175,152.4465226000175,155.4522950000828,155.4522950000828,['1'],[0.6523505999939516],,,sub_1,6.0,2023-08-18_12h28.10.706,run_1,2023.1.2,60.03435165200684,,Hit,1,,
6.0,86.58,veridical,fps_60/1159440.bmp_pp64_L1_V1_veridical_freeview_isoFalse_fps60.mp4,2.9299999999999926,,0.0,8.0,8.0,8.0,,,,,155.4522950000828,158.7948921000352,158.7948921000352,161.91421250009444,161.91421250009444,164.91592140006833,164.91592140006833,['1'],[0.5543735000537708],,,sub_1,6.0,2023-08-18_12h28.10.706,run_1,2023.1.2,60.03435165200684,,Hit,1,,
6.0,96.2,scrambled,fps_60/150474.bmp_pp57_L1_V1_scrambled_freeview_isoFalse_fps60.mp4,3.620000000000005,,0.0,9.0,9.0,9.0,,,,,164.91592140006833,168.9840167000657,168.9840167000657,172.0909910000628,172.0909910000628,175.0921894001076,175.0921894001076,['1'],[1.2244281999301165],,,sub_1,6.0,2023-08-18_12h28.10.706,run_1,2023.1.2,60.03435165200684,,False Alarm,1,,
6.0,106.26,scrambled,fps_60/1160168.bmp_pp54_L2_V1_scrambled_freeview_isoFalse_fps60.mp4,4.060000000000002,,0.0,10.0,10.0,10.0,,,,,175.0921894001076,179.59155430004466,179.59155430004466,182.68064780009445,182.68064780009445,185.68794930004515,185.68794930004515,['2'],[0.885218899929896],,,sub_1,6.0,2023-08-18_12h28.10.706,run_1,2023.1.2,60.03435165200684,,Correct Reject,2,,
6.0,115.03,veridical,fps_60/285993.bmp_pp67_L2_V1_veridical_freeview_isoFalse_fps60.mp4,2.769999999999996,,0.0,11.0,11.0,11.0,,,,,185.68794930004515,188.85920000006445,188.85920000006445,191.9592092001112,191.9592092001112,,,['1'],[0.7530768000287935],,,sub_1,6.0,2023-08-18_12h28.10.706,run_1,2023.1.2,60.03435165200684,,Hit,1,,
6.0,129.34,scrambled,fps_60/1592303.bmp_pp84_L3_V1_scrambled_freeview_isoFalse_fps60.mp4,8.310000000000002,,0.0,12.0,12.0,12.0,,,,,194.9712403001031,203.7317176000215,203.7317176000215,206.77705950010568,206.77705950010568,209.77848850004372,209.77848850004372,['2'],[0.7514789000852033],,,sub_1,6.0,2023-08-18_12h28.10.706,run_1,2023.1.2,60.03435165200684,,Correct Reject,2,,
6.0,137.36,scrambled,fps_60/285993.bmp_pp67_L2_V1_scrambled_freeview_isoFalse_fps60.mp4,2.0200000000000102,,0.0,13.0,13.0,13.0,,,,,209.77848850004372,212.21272750000932,212.21272750000932,215.3130286000669,215.3130286000669,218.31741520005744,218.31741520005744,['2'],[0.8364671999588609],,,sub_1,6.0,2023-08-18_12h28.10.706,run_1,2023.1.2,60.03435165200684,,Correct Reject,2,,
6.0,145.43,scrambled,fps_60/1159813.bmp_pp88_L2_V1_scrambled_freeview_isoFalse_fps60.mp4,2.069999999999993,,0.0,14.0,14.0,14.0,,,,,218.31741520005744,220.79287840006876,220.79287840006876,223.8921379999956,223.8921379999956,226.900047800038,226.900047800038,['2'],[1.1567260000156239],,,sub_1,6.0,2023-08-18_12h28.10.706,run_1,2023.1.2,60.03435165200684,,Correct Reject,2,,
6.0,155.23,scrambled,fps_60/1591977.bmp_pp58_L1_V1_scrambled_freeview_isoFalse_fps60.mp4,3.799999999999983,,0.0,15.0,15.0,15.0,,,,,226.900047800038,231.14235470001583,231.14235470001583,234.253242900013,234.253242900013,237.25818130001423,237.25818130001423,['2'],[0.9524559000274166],,,sub_1,6.0,2023-08-18_12h28.10.706,run_1,2023.1.2,60.03435165200684,,Correct Reject,2,,
6.0,165.81,scrambled,fps_60/1159329.bmp_pp95_L2_V1_scrambled_freeview_isoFalse_fps60.mp4,4.5800000000000125,,0.0,16.0,16.0,16.0,,,,,237.25818130001423,242.29114880005363,242.29114880005363,245.38221480010543,245.38221480010543,248.39162960008247,248.39162960008247,['2'],[0.701980899902992],,,sub_1,6.0,2023-08-18_12h28.10.706,run_1,2023.1.2,60.03435165200684,,Correct Reject,2,,
6.0,174.16,veridical,fps_60/150474.bmp_pp57_L1_V1_veridical_freeview_isoFalse_fps60.mp4,2.3499999999999943,,0.0,17.0,17.0,17.0,,,,,248.39162960008247,251.1011848000344,251.1011848000344,254.22280210000463,254.22280210000463,257.2225053000729,257.2225053000729,['1'],[1.0574904000386596],,,sub_1,6.0,2023-08-18_12h28.10.706,run_1,2023.1.2,60.03435165200684,,Hit,1,,
6.0,183.28,scrambled,fps_60/1159440.bmp_pp64_L1_V1_scrambled_freeview_isoFalse_fps60.mp4,3.1200000000000045,,0.0,18.0,18.0,18.0,,,,,257.2225053000729,260.75952310010325,260.75952310010325,263.8791940000374,263.8791940000374,,,['2'],[0.9778662000317127],,,sub_1,6.0,2023-08-18_12h28.10.706,run_1,2023.1.2,60.03435165200684,,Correct Reject,2,,
6.0,191.93,veridical,fps_60/713274.bmp_pp91_L3_V1_veridical_freeview_isoFalse_fps60.mp4,2.6500000000000057,,0.0,19.0,19.0,19.0,,,,,266.8927143000765,269.8909502000315,269.8909502000315,272.99140220007394,272.99140220007394,275.9976809000364,275.9976809000364,['1'],[1.490390699938871],,,sub_1,6.0,2023-08-18_12h28.10.706,run_1,2023.1.2,60.03435165200684,,Hit,1,,
5.0,10.0,scrambled,fps_60/497926.bmp_pp65_L3_V1_scrambled_freeview_isoFalse_fps60.mp4,10.0,,0.0,0.0,0.0,0.0,,,,,40.5686495997943,50.99019989999943,50.99019989999943,54.07387719978578,54.07387719978578,57.07771889981814,57.07771889981814,['1'],[1.737617400009185],,,subject_9,5.0,2023-08-31_15h04.52.342,run_1,2023.1.2,59.93734151450177,,False Alarm,1,,
5.0,18.08,veridical,fps_60/1159775.bmp_pp86_L2_V1_veridical_freeview_isoFalse_fps60.mp4,2.0799999999999983,,0.0,1.0,1.0,1.0,,,,,57.07771889981814,59.54754629987292,59.54754629987292,62.66967269987799,62.66967269987799,,,['2'],[1.5142757000867277],,,subject_9,5.0,2023-08-31_15h04.52.342,run_1,2023.1.2,59.93734151450177,,Miss,2,,
5.0,28.72,veridical,fps_60/713089.bmp_pp91_L3_V1_veridical_freeview_isoFalse_fps60.mp4,4.640000000000001,,0.0,2.0,2.0,2.0,,,,,65.68513239989989,70.73393999994732,70.73393999994732,73.84132459992543,73.84132459992543,76.85017259977758,76.85017259977758,['1'],[0.9537540001329035],,,subject_9,5.0,2023-08-31_15h04.52.342,run_1,2023.1.2,59.93734151450177,,Hit,1,,
5.0,43.9,scrambled,fps_60/285933.bmp_pp89_L1_V1_scrambled_freeview_isoFalse_fps60.mp4,9.18,,0.0,3.0,3.0,3.0,,,,,76.85017259977758,86.461392799858,86.461392799858,89.5635024998337,89.5635024998337,92.5682705999352,92.5682705999352,['1'],[2.4722577000502497],,,subject_9,5.0,2023-08-31_15h04.52.342,run_1,2023.1.2,59.93734151450177,,False Alarm,1,,
5.0,52.16,veridical,fps_60/286001.bmp_pp90_L2_V1_veridical_freeview_isoFalse_fps60.mp4,2.259999999999998,,0.0,4.0,4.0,4.0,,,,,92.5682705999352,95.20313439983876,95.20313439983876,98.30934279994108,98.30934279994108,101.31089309998788,101.31089309998788,['2'],[1.2293076999485493],,,subject_9,5.0,2023-08-31_15h04.52.342,run_1,2023.1.2,59.93734151450177,,Miss,2,,
5.0,61.44,scrambled,fps_60/1159956.bmp_pp73_L3_V1_scrambled_freeview_isoFalse_fps60.mp4,3.280000000000001,,0.0,5.0,5.0,5.0,,,,,101.31089309998788,104.9733632998541,104.9733632998541,108.06191879999824,108.06191879999824,111.06452799984254,111.06452799984254,['1'],[0.38311060005798936],,,subject_9,5.0,2023-08-31_15h04.52.342,run_1,2023.1.2,59.93734151450177,,False Alarm,1,,
5.0,70.46,veridical,fps_60/498151.bmp_pp60_L3_V1_veridical_freeview_isoFalse_fps60.mp4,3.019999999999996,,0.0,6.0,6.0,6.0,,,,,111.06452799984254,114.44994509988464,114.44994509988464,117.53932419978082,117.53932419978082,120.54164339997806,120.54164339997806,['1'],[1.2826072999741882],,,subject_9,5.0,2023-08-31_15h04.52.342,run_1,2023.1.2,59.93734151450177,,Hit,1,,
5.0,79.02,veridical,fps_60/497926.bmp_pp65_L3_V1_veridical_freeview_isoFalse_fps60.mp4,2.5600000000000023,,0.0,7.0,7.0,7.0,,,,,120.54164339997806,123.46649969997816,123.46649969997816,126.57374979997984,126.57374979997984,129.57749149994925,129.57749149994925,['1'],[0.3832700999919325],,,subject_9,5.0,2023-08-31_15h04.52.342,run_1,2023.1.2,59.93734151450177,,Hit,1,,
5.0,87.02,scrambled,fps_60/1159606.bmp_pp151_L1_V1_scrambled_freeview_isoFalse_fps60.mp4,2.0,,0.0,8.0,8.0,8.0,,,,,129.57749149994925,131.97562209982425,131.97562209982425,135.08169239992276,135.08169239992276,138.08396329986863,138.08396329986863,['1'],[1.5019723000004888],,,subject_9,5.0,2023-08-31_15h04.52.342,run_1,2023.1.2,59.93734151450177,,False Alarm,1,,
5.0,96.61,scrambled,fps_60/713089.bmp_pp91_L3_V1_scrambled_freeview_isoFalse_fps60.mp4,3.5900000000000034,,0.0,9.0,9.0,9.0,,,,,138.08396329986863,142.12119629979134,142.12119629979134,145.20340119977482,145.20340119977482,148.21470469981432,148.21470469981432,['1'],[0.9626044000033289],,,subject_9,5.0,2023-08-31_15h04.52.342,run_1,2023.1.2,59.93734151450177,,False Alarm,1,,
5.0,106.23,veridical,fps_60/285933.bmp_pp89_L1_V1_veridical_freeview_isoFalse_fps60.mp4,3.620000000000005,,0.0,10.0,10.0,10.0,,,,,148.21470469981432,152.2360628999304,152.2360628999304,155.35092529980466,155.35092529980466,,,['1'],[1.0789375000167638],,,subject_9,5.0,2023-08-31_15h04.52.342,run_1,2023.1.2,59.93734151450177,,Hit,1,,
5.0,114.99,veridical,fps_60/1591932.bmp_pp76_L1_V1_veridical_freeview_isoFalse_fps60.mp4,2.759999999999991,,0.0,11.0,11.0,11.0,,,,,158.36459859996103,161.52436769986525,161.52436769986525,164.64530219999142,164.64530219999142,,,['2'],[0.8660343999508768],,,subject_9,5.0,2023-08-31_15h04.52.342,run_1,2023.1.2,59.93734151450177,,Miss,2,,
5.0,123.58,scrambled,fps_60/286001.bmp_pp90_L2_V1_scrambled_freeview_isoFalse_fps60.mp4,2.5900000000000034,,0.0,12.0,12.0,12.0,,,,,167.6607527998276,170.62875479995273,170.62875479995273,173.70961889997125,173.70961889997125,176.719594999915,176.719594999915,['1'],[1.326367599889636],,,subject_9,5.0,2023-08-31_15h04.52.342,run_1,2023.1.2,59.93734151450177,,False Alarm,1,,
5.0,133.47,veridical,fps_60/1159606.bmp_pp151_L1_V1_veridical_freeview_isoFalse_fps60.mp4,3.890000000000001,,0.0,13.0,13.0,13.0,,,,,176.719594999915,181.03650249983184,181.03650249983184,184.10382409999147,184.10382409999147,187.1055250999052,187.1055250999052,['1'],[1.5721986999269575],,,subject_9,5.0,2023-08-31_15h04.52.342,run_1,2023.1.2,59.93734151450177,,Hit,1,,
5.0,141.64,veridical,fps_60/1159956.bmp_pp73_L3_V1_veridical_freeview_isoFalse_fps60.mp4,2.1699999999999875,,0.0,14.0,14.0,14.0,,,,,187.1055250999052,189.6475753998384,189.6475753998384,192.7536298998166,192.7536298998166,195.7606785998214,195.7606785998214,['2'],[1.2237996000330895],,,subject_9,5.0,2023-08-31_15h04.52.342,run_1,2023.1.2,59.93734151450177,,Miss,2,,
5.0,150.19,scrambled,fps_60/498151.bmp_pp60_L3_V1_scrambled_freeview_isoFalse_fps60.mp4,2.550000000000012,,0.0,15.0,15.0,15.0,,,,,195.7606785998214,198.6556565999053,198.6556565999053,201.76107689994387,201.76107689994387,204.76449209987183,204.76449209987183,['1'],[0.951361499959603],,,subject_9,5.0,2023-08-31_15h04.52.342,run_1,2023.1.2,59.93734151450177,,False Alarm,1,,
5.0,158.69,scrambled,fps_60/1159775.bmp_pp86_L2_V1_scrambled_freeview_isoFalse_fps60.mp4,2.5,,0.0,16.0,16.0,16.0,,,,,204.76449209987183,207.62480349978432,207.62480349978432,210.73034779983573,210.73034779983573,213.7393781999126,213.7393781999126,['1'],[0.8537458998616785],,,subject_9,5.0,2023-08-31_15h04.52.342,run_1,2023.1.2,59.93734151450177,,False Alarm,1,,
5.0,168.37,veridical,fps_60/1592201.bmp_pp100_L3_V1_veridical_freeview_isoFalse_fps60.mp4,3.680000000000007,,0.0,17.0,17.0,17.0,,,,,213.7393781999126,217.8068586997688,217.8068586997688,220.8914203997701,220.8914203997701,223.90034759999253,223.90034759999253,['1'],[0.6969385000411421],,,subject_9,5.0,2023-08-31_15h04.52.342,run_1,2023.1.2,59.93734151450177,,Hit,1,,
5.0,177.31,scrambled,fps_60/1591932.bmp_pp76_L1_V1_scrambled_freeview_isoFalse_fps60.mp4,2.9399999999999977,,0.0,18.0,18.0,18.0,,,,,223.90034759999253,227.2092681999784,227.2092681999784,230.329760099994,230.329760099994,,,['1'],[0.5980420000851154],,,subject_9,5.0,2023-08-31_15h04.52.342,run_1,2023.1.2,59.93734151450177,,False Alarm,1,,
5.0,188.96,scrambled,fps_60/1592201.bmp_pp100_L3_V1_scrambled_freeview_isoFalse_fps60.mp4,5.650000000000006,,0.0,19.0,19.0,19.0,,,,,233.34387449990027,239.35477339988572,239.35477339988572,242.44198709982447,242.44198709982447,245.45318519999276,245.45318519999276,['1'],[0.5264345000032336],,,subject_9,5.0,2023-08-31_15h04.52.342,run_1,2023.1.2,59.93734151450177,,False Alarm,1,,
1.0,10.0,scrambled,fps_60/1592044.bmp_pp90_L2_V1_scrambled_freeview_isoFalse_fps60.mp4,10.0,,0.0,0.0,0.0,0.0,,,,,112.3927577000577,122.78480349993332,122.78480349993332,125.88776890002192,125.88776890002192,,,['2'],[1.1286765998229384],,,subject_9,1.0,2023-08-31_14h44.59.403,run_1,2023.1.2,60.06280166815542,,Correct Reject,2,,
1.0,19.68,scrambled,fps_60/1592094.bmp_pp89_L1_V1_scrambled_freeview_isoFalse_fps60.mp4,3.68,,0.0,1.0,1.0,1.0,,,,,128.90006039990112,132.98360969987698,132.98360969987698,136.03263849997893,136.03263849997893,139.04221819993109,139.04221819993109,['1'],[0.7016647001728415],,,subject_9,1.0,2023-08-31_14h44.59.403,run_1,2023.1.2,60.06280166815542,,False Alarm,1,,
1.0,29.81,veridical,fps_60/713142.bmp_pp54_L2_V1_veridical_freeview_isoFalse_fps60.mp4,4.129999999999999,,0.0,2.0,2.0,2.0,,,,,139.04221819993109,143.57975720008835,143.57975720008835,146.6676362999715,146.6676362999715,,,['1'],[1.4492212000768632],,,subject_9,1.0,2023-08-31_14h44.59.403,run_1,2023.1.2,60.06280166815542,,Hit,1,,
1.0,39.08,veridical,fps_60/1159515.bmp_pp80_L3_V1_veridical_freeview_isoFalse_fps60.mp4,3.27,,0.0,3.0,3.0,3.0,,,,,149.68270089989528,153.31149549991824,153.31149549991824,156.41686960007064,156.41686960007064,159.4248047999572,159.4248047999572,['2'],[1.6349544001277536],,,subject_9,1.0,2023-08-31_14h44.59.403,run_1,2023.1.2,60.06280166815542,,Miss,2,,
1.0,48.0,scrambled,fps_60/713142.bmp_pp54_L2_V1_scrambled_freeview_isoFalse_fps60.mp4,2.9200000000000017,,0.0,4.0,4.0,4.0,,,,,159.4248047999572,162.7173772000242,162.7173772000242,165.83964859996922,165.83964859996922,168.8435054998845,168.8435054998845,['2'],[1.1205546997953206],,,subject_9,1.0,2023-08-31_14h44.59.403,run_1,2023.1.2,60.06280166815542,,Correct Reject,2,,
1.0,56.3,scrambled,fps_60/713330.bmp_pp51_L1_V1_scrambled_freeview_isoFalse_fps60.mp4,2.299999999999997,,0.0,5.0,5.0,5.0,,,,,168.8435054998845,171.5357387000695,171.5357387000695,174.64089390006848,174.64089390006848,177.64931009989232,177.64931009989232,['1'],[0.8275888999924064],,,subject_9,1.0,2023-08-31_14h44.59.403,run_1,2023.1.2,60.06280166815542,,False Alarm,1,,
1.0,66.73,veridical,fps_60/1592044.bmp_pp90_L2_V1_veridical_freeview_isoFalse_fps60.mp4,4.430000000000007,,0.0,6.0,6.0,6.0,,,,,177.64931009989232,182.4942483000923,182.4942483000923,185.59891869989224,185.59891869989224,188.5994945999701,188.5994945999701,['1'],[0.8404896000865847],,,subject_9,1.0,2023-08-31_14h44.59.403,run_1,2023.1.2,60.06280166815542,,Hit,1,,
1.0,75.4,scrambled,fps_60/1159515.bmp_pp80_L3_V1_scrambled_freeview_isoFalse_fps60.mp4,2.6700000000000017,,0.0,7.0,7.0,7.0,,,,,188.5994945999701,191.691450299928,191.691450299928,194.7741529000923,194.7741529000923,197.77974170004015,197.77974170004015,['1'],[2.334383700042963],,,subject_9,1.0,2023-08-31_14h44.59.403,run_1,2023.1.2,60.06280166815542,,False Alarm,1,,
1.0,84.36,scrambled,fps_60/1160247.bmp_pp99_L2_V1_scrambled_freeview_isoFalse_fps60.mp4,2.9599999999999937,,0.0,8.0,8.0,8.0,,,,,197.77974170004015,201.1292377000209,201.1292377000209,204.23461019992828,204.23461019992828,,,['2'],[2.7939772999379784],,,subject_9,1.0,2023-08-31_14h44.59.403,run_1,2023.1.2,60.06280166815542,,Correct Reject,2,,
1.0,93.97,veridical,fps_60/713807.bmp_pp152_L2_V1_veridical_freeview_isoFalse_fps60.mp4,3.61,,0.0,9.0,9.0,9.0,,,,,207.24958080006763,211.2681132000871,211.2681132000871,214.35770189994943,214.35770189994943,217.358173500048,217.358173500048,['2'],[0.6154455000068992],,,subject_9,1.0,2023-08-31_14h44.59.403,run_1,2023.1.2,60.06280166815542,,Miss,2,,
1.0,103.09,veridical,fps_60/1592094.bmp_pp89_L1_V1_veridical_freeview_isoFalse_fps60.mp4,3.1200000000000045,,0.0,10.0,10.0,10.0,,,,,217.358173500048,220.84834939986467,220.84834939986467,223.95600049989295,223.95600049989295,226.95563380001116,226.95563380001116,['1'],[1.712747400160879],,,subject_9,1.0,2023-08-31_14h44.59.403,run_1,2023.1.2,60.06280166815542,,Hit,1,,
1.0,112.07,scrambled,fps_60/713807.bmp_pp152_L2_V1_scrambled_freeview_isoFalse_fps60.mp4,2.9799999999999898,,0.0,11.0,11.0,11.0,,,,,226.95563380001116,230.34966539987363,230.34966539987363,233.46680060005747,233.46680060005747,236.46583319990896,236.46583319990896,['1'],[1.3879970000125468],,,subject_9,1.0,2023-08-31_14h44.59.403,run_1,2023.1.2,60.06280166815542,,False Alarm,1,,
1.0,122.94,veridical,fps_60/1592836.bmp_pp64_L1_V1_veridical_freeview_isoFalse_fps60.mp4,4.8700000000000045,,0.0,12.0,12.0,12.0,,,,,236.46583319990896,241.76416329992932,241.76416329992932,244.86562549998047,244.86562549998047,247.86826499993916,247.86826499993916,['2'],[0.7675822998862714],,,subject_9,1.0,2023-08-31_14h44.59.403,run_1,2023.1.2,60.06280166815542,,Miss,2,,
1.0,131.58,veridical,fps_60/1592254.bmp_pp82_L2_V1_veridical_freeview_isoFalse_fps60.mp4,2.640000000000015,,0.0,13.0,13.0,13.0,,,,,247.86826499993916,250.8878257998731,250.8878257998731,254.00916550005783,254.00916550005783,257.0159924000036,257.0159924000036,['2'],[0.8738189998548478],,,subject_9,1.0,2023-08-31_14h44.59.403,run_1,2023.1.2,60.06280166815542,,Miss,2,,
1.0,143.68,veridical,fps_60/713330.bmp_pp51_L1_V1_veridical_freeview_isoFalse_fps60.mp4,6.099999999999994,,0.0,14.0,14.0,14.0,,,,,257.0159924000036,263.56906039989553,263.56906039989553,266.63792510004714,266.63792510004714,269.63953609997407,269.63953609997407,['2'],[1.0526076999958605],,,subject_9,1.0,2023-08-31_14h44.59.403,run_1,2023.1.2,60.06280166815542,,Miss,2,,
1.0,152.71,scrambled,fps_60/498155.bmp_pp99_L2_V1_scrambled_freeview_isoFalse_fps60.mp4,3.030000000000001,,0.0,15.0,15.0,15.0,,,,,269.63953609997407,273.07070640008897,273.07070640008897,276.1536322000902,276.1536322000902,,,['1'],[0.7296502001117915],,,subject_9,1.0,2023-08-31_14h44.59.403,run_1,2023.1.2,60.06280166815542,,False Alarm,1,,
1.0,162.9,veridical,fps_60/1160247.bmp_pp99_L2_V1_veridical_freeview_isoFalse_fps60.mp4,4.189999999999998,,0.0,16.0,16.0,16.0,,,,,279.1658854999114,283.7103909999132,283.7103909999132,286.7844811000396,286.7844811000396,,,['1'],[1.0001258000265807],,,subject_9,1.0,2023-08-31_14h44.59.403,run_1,2023.1.2,60.06280166815542,,Hit,1,,
1.0,171.48,veridical,fps_60/498155.bmp_pp99_L2_V1_veridical_freeview_isoFalse_fps60.mp4,2.579999999999984,,0.0,17.0,17.0,17.0,,,,,289.7992380000651,292.68002779991366,292.68002779991366,295.78594209998846,295.78594209998846,,,['1'],[1.0073001999408007],,,subject_9,1.0,2023-08-31_14h44.59.403,run_1,2023.1.2,60.06280166815542,,Hit,1,,
1.0,180.29,scrambled,fps_60/1592254.bmp_pp82_L2_V1_scrambled_freeview_isoFalse_fps60.mp4,2.8100000000000023,,0.0,18.0,18.0,18.0,,,,,298.8006436000578,302.02102370001376,302.02102370001376,305.1078045000322,305.1078045000322,308.1183728000615,308.1183728000615,['2'],[1.5965756000950933],,,subject_9,1.0,2023-08-31_14h44.59.403,run_1,2023.1.2,60.06280166815542,,Correct Reject,2,,
